timestamp,accel_x,accel_y,accel_z
1637208257245,103.6549,10.8286,19.2373
1637208257259,103.6367,11.3002,17.5492
1637208257275,104.1115,12.0983,18.6808
1637208257291,104.3124,12.0801,19.4599
1637208257305,104.0567,12.5155,18.8107
1637208257321,104.495,12.6606,19.1631
1637208257337,103.3262,11.536,19.6269
1637208257351,102.7418,11.4453,19.6826
1637208257367,103.6732,11.6267,19.3672
1637208257383,103.6732,12.4973,17.846
1637208257397,104.3489,12.0439,18.755
1637208257413,104.8054,11.8625,19.5712
1637208257429,105.1342,11.6085,18.7365
1637208257445,104.7324,11.9894,19.0704
1637208257459,104.568,13.0777,18.8849
1637208257475,105.5177,12.3341,16.8999
1637208257491,105.5177,11.1551,16.9927
1637208257505,105.4264,10.9918,16.9185
1637208257521,105.5359,11.935,18.4025
1637208257537,104.2576,11.5179,19.0889
1637208257551,103.0523,11.6267,17.9202
1637208257567,104.7872,11.5723,18.2541
1637208257583,105.8646,11.5541,18.4396
1637208257597,105.7733,12.0983,17.679
1637208257613,104.2211,11.5904,18.4767
1637208257629,104.2028,12.8057,19.7939
1637208257643,104.3672,14.0935,19.293
1637208257659,104.5315,13.0596,19.5156
1637208257675,103.8923,12.0801,19.7011
1637208257689,103.801,12.3159,19.2559
1637208257705,102.8332,14.2023,19.9794
1637208257721,102.8697,13.6038,19.4043
1637208257735,102.3766,11.3727,18.4582
1637208257751,103.1619,12.9326,17.0112
1637208257767,105.7003,12.6062,17.9202
1637208257781,104.7141,13.4224,18.2912
1637208257797,105.2803,12.9871,18.9405
1637208257813,104.495,11.4816,18.3469
1637208257829,103.9837,11.8443,17.0669
1637208257843,104.7872,12.8601,18.2541
1637208257859,105.4629,12.2797,19.0704
1637208257875,104.4402,12.0801,18.5138
1637208257889,104.3672,12.6424,19.0518
1637208257905,104.2576,12.9326,18.6066
1637208257921,103.6915,11.6085,17.1596
1637208257935,103.6002,11.6811,17.1225
1637208257951,104.2758,12.588,17.9944
1637208257967,104.6228,13.9303,17.5121
1637208257981,104.0567,13.64,17.1411
1637208257997,104.2211,13.0959,17.5492
1637208258013,104.0202,13.1503,17.7533
1637208258027,105.2803,13.2229,18.6251
1637208258043,104.9515,12.5336,18.1985
1637208258059,104.8785,13.0052,19.0889
1637208258073,104.8237,12.588,17.7904
1637208258089,104.0567,12.4792,19.0889
1637208258105,103.6915,12.4066,19.126
1637208258119,103.7463,11.8625,18.0686
1637208258135,103.1436,11.4997,19.0147
1637208258151,104.0384,13.1866,19.7011
1637208258165,105.0794,13.9665,20.5173
1637208258181,104.9698,14.0391,19.5341
1637208258197,105.0429,13.8033,20.5915
1637208258213,104.495,13.2229,18.5695
1637208258227,104.7324,12.6606,18.9776
1637208258243,105.3168,11.8988,19.4228
1637208258259,105.6272,11.5904,18.7736
1637208258273,104.6411,12.7875,18.217
1637208258289,103.7645,12.6968,18.8663
1637208258305,104.4585,13.5856,19.7197
1637208258319,105.0794,13.7126,20.2947
1637208258335,103.9289,12.9871,18.4767
1637208258351,103.6549,13.2954,18.7736
1637208258365,103.8558,12.0257,18.6808
1637208258381,104.4037,12.1708,18.4767
1637208258397,104.1845,13.0233,18.2356
1637208258411,104.8237,12.9689,18.013
1637208258427,104.7141,12.4066,17.308
1637208258443,106.1203,11.4272,17.7718
1637208258457,105.4264,11.409,17.4008
1637208258473,104.3854,13.4042,17.9017
1637208258489,105.3716,13.9484,18.384
1637208258503,104.4402,14.1479,19.6269
1637208258519,104.4402,13.8577,21.0368
1637208258535,104.0384,13.9847,19.664
1637208258549,103.7097,12.9871,19.2559
1637208258565,104.7141,14.6921,18.2912
1637208258581,106.102,15.7441,17.9388
1637208258597,105.0246,14.7102,18.0686
1637208258611,104.6959,13.64,19.4414
1637208258627,104.9881,13.3861,18.2541
1637208258643,104.8237,12.9145,17.4379
1637208258657,104.8237,13.9847,17.5121
1637208258673,103.5454,15.2543,17.7904
1637208258689,103.7828,14.5288,18.7921
1637208258703,103.8741,13.7851,17.9202
1637208258719,103.6915,14.4018,18.1057
1637208258735,103.6915,15.8348,19.7197
1637208258749,104.7872,16.0706,20.4802
1637208258765,104.6776,16.524,19.3486
1637208258781,104.4219,15.998,19.5527
1637208258795,103.6915,15.998,19.3672
1637208258811,103.4175,15.5083,18.6066
1637208258827,103.5088,15.5083,19.4228
1637208258841,105.0246,15.0911,20.5915
1637208258857,103.9837,17.0319,20.2391
1637208258873,103.728,15.7985,18.384
1637208258887,104.2393,15.6715,16.9741
1637208258903,104.1298,15.6353,16.8628
1637208258919,103.0706,16.3608,18.9591
1637208258933,103.3262,18.6099,19.8124
1637208258949,103.6732,19.2811,20.2576
1637208258965,103.8923,18.2472,18.384
1637208258981,105.0429,18.6281,18.6251
1637208258995,104.495,19.0271,19.6826
1637208259011,104.915,17.9207,19.7568
1637208259027,104.0384,19.8615,18.4211
1637208259041,103.3993,20.6959,17.679
1637208259057,103.2532,19.5169,17.2709
1637208259073,103.6184,19.408,15.8982
1637208259087,102.4862,18.882,16.3248
1637208259103,102.3949,17.83,16.2877
1637208259119,102.7053,17.304,18.2912
1637208259133,105.3716,18.2835,18.1243
1637208259149,106.2847,19.1541,16.8628
1637208259165,105.4811,19.3899,19.2559
1637208259179,104.495,18.9727,18.6622
1637208259195,103.3445,19.0815,18.6251
1637208259211,103.308,18.1928,17.0854
1637208259225,102.614,17.6486,16.2877
1637208259241,102.4862,16.125,15.2674
1637208259257,103.728,17.5035,15.2118
1637208259271,102.8697,18.8639,16.6216
1637208259287,102.1209,20.5145,18.7179
1637208259303,103.034,19.9159,19.6269
1637208259317,105.9377,19.8434,20.202
1637208259333,106.9786,19.9159,18.2541
1637208259349,106.8143,18.7188,17.2338
1637208259365,104.8054,19.1178,14.6367
1637208259379,104.0384,19.4806,13.9689
1637208259395,103.0523,19.7889,14.3399
1637208259411,102.0296,19.8796,15.2118
1637208259425,102.7784,19.4443,16.1579
1637208259441,103.7097,19.7164,15.9724
1637208259457,103.9289,19.7708,16.8072
1637208259471,104.0567,19.7164,15.1932
1637208259487,104.2758,18.6281,14.9521
1637208259503,106.029,18.2109,13.8205
1637208259517,105.7185,19.4987,12.3178
1637208259533,105.3716,18.7188,13.4494
1637208259549,104.4585,17.5398,13.8947
1637208259563,103.1619,18.6099,13.9132
1637208259579,103.6367,20.2424,14.7851
1637208259595,103.2167,20.7684,14.4326
1637208259609,104.4219,20.9498,16.4547
1637208259625,104.6046,20.3331,14.8222
1637208259641,105.8829,20.6596,13.2083
1637208259655,107.216,21.0042,11.8541
1637208259671,106.0655,20.188,12.8373
1637208259687,104.2576,18.4286,14.2657
1637208259701,104.3306,17.9932,13.9318
1637208259717,103.7828,19.9159,13.6535
1637208259733,103.2167,19.8071,12.1694
1637208259749,103.9837,19.0271,11.7427
1637208259763,104.0567,18.7006,12.559
1637208259779,102.961,18.6462,12.1509
1637208259795,103.2349,19.7164,11.3717
1637208259809,104.7141,17.9751,12.2251
1637208259825,104.5315,18.1383,11.5016
1637208259841,104.4037,20.4056,12.3549
1637208259855,104.7141,20.5689,14.6738
1637208259871,104.4767,20.5326,13.5422
1637208259887,104.6228,19.5713,13.1897
1637208259901,104.495,19.1178,12.8558
1637208259917,103.1253,19.3718,11.9654
1637208259933,103.8923,19.2629,12.5033
1637208259947,104.8602,19.535,13.0228
1637208259963,103.7463,20.587,13.8205
1637208259979,103.381,20.587,13.9503
1637208259993,104.0202,19.7708,12.8187
1637208260009,106.1751,19.2811,12.188
1637208260025,108.1474,19.6438,12.6703
1637208260039,107.9282,20.061,12.1138
1637208260055,107.216,19.6801,12.2993
1637208260071,105.4081,19.6438,12.2251
1637208260085,103.7828,20.2787,12.0396
1637208260101,102.9975,20.8772,11.0935
1637208260117,102.5044,18.7732,10.8709
1637208260133,102.7236,19.2085,11.6871
1637208260147,104.0384,19.3899,9.5723
1637208260163,104.5498,18.5011,10.7039
1637208260179,106.1568,20.0429,12.3364
1637208260193,106.5586,20.188,11.8726
1637208260209,106.5038,19.1722,12.8002
1637208260225,104.7689,20.061,13.5607
1637208260239,104.3124,20.0429,11.7056
1637208260255,104.7507,19.1904,11.0193
1637208260271,104.9333,19.136,9.9062
1637208260285,105.7368,19.009,10.0917
1637208260301,105.4264,18.9183,13.8761
1637208260317,105.3168,18.7188,13.5051
1637208260331,105.3898,20.2968,12.5775
1637208260347,105.609,20.5507,11.6314
1637208260363,105.2803,19.3899,11.817
1637208260377,106.723,19.0634,12.8744
1637208260393,107.7456,19.1178,14.1173
1637208260409,105.2255,18.483,12.3364
1637208260423,104.842,16.8868,12.9857
1637208260439,105.4811,17.7937,12.93
1637208260455,103.9654,18.7369,11.7427
1637208260469,103.6002,19.3536,11.4459
1637208260485,103.5271,19.4806,13.9318
1637208260501,102.6323,17.6123,14.2471
1637208260517,102.961,17.5942,13.2454
1637208260531,104.3489,18.3197,14.3584
1637208260547,106.0473,18.1746,14.0987
1637208260563,106.1568,17.5942,13.2268
1637208260577,106.7412,17.6123,13.3567
1637208260593,106.1386,18.8095,13.5607
1637208260609,105.0976,18.356,14.748
1637208260623,104.1298,18.0658,15.5642
1637208260639,105.3898,17.5761,15.0077
1637208260655,104.2028,18.0295,15.9909
1637208260669,103.4175,17.6486,14.7109
1637208260685,102.6688,16.9231,14.7851
1637208260701,102.9792,16.3789,14.4512
1637208260715,103.1253,17.177,14.3213
1637208260731,103.034,18.229,15.3416
1637208260747,105.1889,18.6099,16.4918
1637208260761,105.0246,17.7574,14.7294
1637208260777,103.6002,17.2133,12.9115
1637208260793,103.0523,17.1407,12.3178
1637208260807,103.8193,17.2496,13.5236
1637208260823,103.1801,18.3741,14.8593
1637208260839,103.2532,18.4286,15.6199
1637208260853,104.2028,19.2448,15.6384
1637208260869,104.0932,19.7708,16.3805
1637208260885,103.3262,18.0658,15.4529
1637208260901,103.7645,17.304,15.7683
1637208260915,104.0567,18.0839,16.1208
1637208260931,103.9837,16.125,16.6958
1637208260947,104.2941,16.651,18.4767
1637208260961,104.8602,17.177,17.3822
1637208260977,104.4767,18.4648,15.4158
1637208260993,104.0019,19.535,14.3399
1637208261007,103.5819,19.5894,15.5642
1637208261023,103.4175,20.8954,16.6402
1637208261039,103.7828,20.6052,17.2338
1637208261053,103.8741,19.2085,15.9167
1637208261069,103.7097,18.2109,15.4715
1637208261085,103.6367,18.3923,16.195
1637208261099,104.7689,17.7212,15.6199
1637208261115,104.0932,17.4491,16.6216
1637208261131,104.148,17.1952,14.8964
1637208261145,104.8054,19.4624,13.9503
1637208261161,103.3993,19.2448,14.2657
1637208261177,102.7784,20.2424,16.195
1637208261191,103.9654,20.1336,15.6755
1637208261207,104.3124,19.0997,16.5845
1637208261223,104.4767,19.0997,16.2135
1637208261237,105.8829,18.4648,15.824
1637208261253,106.2116,18.5011,17.0112
1637208261269,106.3577,17.6668,16.028
1637208261285,105.6638,17.7937,15.7498
1637208261299,104.9515,17.83,16.399
1637208261315,103.801,19.0634,17.4008
1637208261331,102.4314,20.1154,16.3619
1637208261345,102.4497,20.0792,14.8408
1637208261361,103.381,20.6777,14.915
1637208261377,103.6002,18.9546,15.9724
1637208261391,103.2714,19.0634,16.9741
1637208261407,101.847,20.3149,16.5845
1637208261423,102.1757,21.8567,17.8275
1637208261437,104.1845,20.4963,17.3822
1637208261453,104.148,18.1383,17.1596
1637208261469,103.8558,18.483,16.937
1637208261483,104.0202,19.6438,16.5289
1637208261499,104.7872,19.5713,17.846
1637208261515,105.5724,20.6414,17.6048
1637208261529,104.7872,22.2739,16.8999
1637208261545,102.8697,20.2243,16.3434
1637208261561,103.2897,19.6438,17.1596
1637208261575,102.3036,19.3536,19.7197
1637208261591,101.7009,18.882,19.5712
1637208261607,103.1801,19.009,18.5509
1637208261621,104.1298,18.8457,16.2877
1637208261637,103.6732,18.3016,15.4529
1637208261653,104.3306,19.1178,17.4193
1637208261669,105.7733,18.5918,19.3301
1637208261683,105.335,19.0271,18.7921
1637208261699,104.8602,20.6233,17.8275
1637208261715,103.7097,20.8954,16.3805
1637208261729,104.5315,19.3173,16.6031
1637208261745,104.1663,19.408,17.5121
1637208261761,102.8514,18.5737,18.4767
1637208261775,104.5315,19.1178,19.9794
1637208261791,104.495,18.4648,18.0501
1637208261807,104.7689,18.8457,15.9167
1637208261821,104.7507,18.5555,17.6048
1637208261837,103.1801,19.0815,17.4564
1637208261853,104.1115,19.4262,17.4193
1637208261867,104.1115,19.2448,15.8796
1637208261883,103.9471,19.6438,14.9335
1637208261899,104.3124,18.356,13.9132
1637208261913,103.0888,18.3741,14.6552
1637208261929,103.1801,18.1383,16.1208
1637208261945,104.8602,19.0453,17.2524
1637208261959,104.2758,18.9183,15.8796
1637208261975,103.9837,18.882,15.7498
1637208261991,104.3672,18.4286,15.657
1637208262005,103.9106,18.5918,16.1579
1637208262021,103.4358,18.2653,15.4344
1637208262037,102.9427,18.5737,14.7666
1637208262053,103.1436,19.8071,14.5625
1637208262067,104.1115,19.4624,15.2674
1637208262083,104.568,18.3379,15.3787
1637208262099,104.2393,18.8276,14.9335
1637208262113,104.2211,19.6257,15.2674
1637208262129,104.4037,18.0295,16.0651
1637208262145,104.6959,17.9388,18.2912
1637208262159,104.8785,18.882,17.308
1637208262175,104.7872,18.229,17.4193
1637208262191,104.5863,19.2085,17.8646
1637208262205,104.8054,19.3899,18.2541
1637208262221,104.5133,18.3741,18.0686
1637208262237,103.4723,17.431,18.1614
1637208262251,102.5775,18.0114,16.399
1637208262267,101.7192,18.2472,15.3231
1637208262283,102.0662,18.6644,14.5439
1637208262297,102.7236,18.6281,15.3045
1637208262313,102.9792,18.483,15.4344
1637208262329,103.6549,19.3536,15.7312
1637208262343,104.1663,19.3355,16.5474
1637208262359,104.4219,19.0997,16.195
1637208262375,104.3854,17.6123,15.3045
1637208262389,104.0932,17.7212,13.5793
1637208262405,104.3672,18.7006,14.8593
1637208262421,105.0794,18.0839,15.657
1637208262437,105.0246,17.4491,15.4158
1637208262451,105.0246,18.9546,14.9892
1637208262467,104.0019,20.9861,14.3399
1637208262483,104.4219,21.5121,15.2303
1637208262497,104.148,19.7345,15.9724
1637208262513,104.7507,18.3197,15.1561
1637208262529,103.1253,17.2858,14.21
1637208262543,103.1801,19.4987,14.4697
1637208262559,104.2758,21.367,15.824
1637208262575,103.8558,20.587,15.8054
1637208262589,104.6594,20.4419,15.3787
1637208262605,104.9333,20.6959,15.3973
1637208262621,103.801,18.6644,14.3584
1637208262635,104.8237,19.5531,13.9318
1637208262651,102.6323,19.009,15.7683
1637208262667,104.4767,19.2992,13.8761
1637208262681,104.8602,19.2448,13.8205
1637208262697,104.2576,19.662,14.8408
1637208262713,104.3306,19.0453,14.4697
1637208262727,105.5359,19.5531,14.21
1637208262743,105.2803,19.6438,13.468
1637208262759,104.5133,19.3355,14.7109
1637208262773,104.2758,18.4467,13.9318
1637208262789,104.6594,18.8095,13.6535
1637208262805,103.4906,18.2835,13.0042
1637208262821,103.9837,19.7345,13.8576
1637208262835,101.6461,19.4806,13.5422
1637208262851,102.5044,19.3899,13.7277
1637208262867,105.2985,18.8095,14.3399
1637208262881,105.7003,16.8505,16.0837
1637208262897,105.7733,18.3016,13.8205
1637208262913,106.4125,18.6281,13.0599
1637208262927,106.4855,17.4854,12.9486
1637208262943,105.9925,18.7188,13.1712
1637208262959,105.2437,19.535,13.2083
1637208262973,104.2576,19.0453,13.0042
1637208262989,103.4175,17.8663,14.0802
1637208263005,104.3124,16.5966,15.1932
1637208263019,103.6367,16.7054,15.6755
1637208263035,103.3993,17.0863,16.3619
1637208263051,102.2488,17.177,13.8576
1637208263065,103.5454,18.5737,14.1358
1637208263081,104.2393,17.5942,14.0802
1637208263097,103.6549,17.304,14.915
1637208263111,103.728,18.9727,15.824
1637208263127,104.0384,18.7369,14.581
1637208263143,104.0384,19.4262,17.0669
1637208263157,103.5819,19.3718,14.5439
1637208263173,103.3262,18.0295,13.8947
1637208263189,102.9245,16.9049,14.2471
1637208263205,104.842,16.9231,13.7277
1637208263219,105.0063,19.0634,15.2674
1637208263235,104.2758,19.0634,15.2489
1637208263251,105.0246,18.5193,15.5271
1637208263265,105.609,18.882,16.0095
1637208263281,104.4402,17.6305,15.1747
1637208263297,104.2941,17.05,13.9503
1637208263311,105.4081,17.5398,13.0413
1637208263327,105.1159,16.4515,13.4865
1637208263343,103.9106,18.3197,15.8611
1637208263357,103.1071,19.7345,16.6216
1637208263373,102.9062,19.5713,16.1764
1637208263389,102.7784,19.7527,15.9353
1637208263403,103.7097,18.8276,15.0448
1637208263419,103.2349,17.9751,14.21
1637208263435,102.7784,17.3765,14.9892
1637208263449,104.4767,17.7937,15.5828
1637208263465,104.075,18.6281,13.7834
1637208263481,104.2758,18.7188,14.21
1637208263495,103.8558,17.7937,13.8761
1637208263511,104.4767,17.8663,14.3213
1637208263527,103.9106,16.252,16.195
1637208263541,103.8741,15.4357,17.0298
1637208263557,104.495,16.9049,15.1376
1637208263573,105.2072,17.8663,14.8037
1637208263589,104.4037,18.4648,13.4865
1637208263603,105.682,19.1904,14.3399
1637208263619,105.7185,18.483,14.3584
1637208263635,104.0567,18.5374,13.5236
1637208263649,103.2714,18.6462,13.0784
1637208263665,104.3672,18.0295,13.2454
1637208263681,104.0384,17.2133,13.4865
1637208263695,103.6732,17.6123,12.2993
1637208263711,103.6002,17.1589,13.4309
1637208263727,103.1253,16.8505,14.6923
1637208263741,102.5957,18.229,15.6384
1637208263757,102.7418,18.7913,15.5642
1637208263773,104.3854,19.9522,14.9521
1637208263787,104.568,19.3899,15.7869
1637208263803,105.2437,18.2653,16.2506
1637208263819,105.3168,17.9025,14.5996
1637208263833,104.915,18.4648,14.748
1637208263849,104.6228,17.6486,13.839
1637208263865,105.3898,17.8663,14.8037
1637208263879,104.5315,17.5942,15.6384
1637208263895,104.0019,18.6281,16.6958
1637208263911,102.961,18.5555,16.5474
1637208263925,103.6184,18.6099,15.5457
1637208263941,104.0567,17.4672,14.5254
1637208263957,103.8741,17.9207,13.8019
1637208263973,103.9837,18.4104,15.1932
1637208263987,104.3854,17.9932,16.733
1637208264003,104.1298,18.9364,15.8982
1637208264019,105.2985,19.3536,14.9892
1637208264033,105.3898,19.2266,16.4176
1637208264049,104.7324,18.6462,16.2135
1637208264065,104.6228,17.5942,14.2842
1637208264079,103.801,16.7598,15.286
1637208264095,102.8879,16.9594,16.195
1637208264111,103.4175,16.4152,16.6587
1637208264125,102.4679,16.7961,16.3248
1637208264141,103.1619,16.9775,15.7683
1637208264157,104.1845,17.0138,15.1376
1637208264171,104.2211,16.9775,17.308
1637208264187,104.3854,18.5737,17.0669
1637208264203,104.8785,17.703,15.9724
1637208264217,104.0019,17.3947,15.2489
1637208264233,103.7828,17.4128,16.4361
1637208264249,104.7141,17.2133,15.3231
1637208264263,105.262,18.6099,18.6622
1637208264279,104.8054,17.1589,18.4025
1637208264295,105.9377,17.0863,16.2692
1637208264309,105.5542,18.0839,16.195
1637208264325,104.6411,19.1178,16.2321
1637208264341,104.148,20.2787,15.7869
1637208264357,105.4264,21.0405,16.733
1637208264371,105.8464,22.2739,17.2709
1637208264387,104.6228,21.6753,16.1022
1637208264403,103.728,20.5145,16.566
1637208264417,102.3401,19.0634,17.2338
1637208264433,103.1253,18.2109,17.0298
1637208264449,103.8558,18.5374,16.0837
1637208264463,104.0384,17.6486,16.5474
1637208264479,103.7097,17.1589,16.8999
1637208264495,103.6549,18.5193,16.0466
1637208264509,101.9018,19.3718,16.0466
1637208264525,102.2122,19.1178,17.3822
1637208264541,103.2714,17.8663,16.4361
1637208264555,102.8332,17.5398,17.2338
1637208264571,103.4175,18.2472,18.7921
1637208264587,105.1524,19.4806,18.1428
1637208264601,104.7324,20.061,20.1834
1637208264617,105.4446,18.9002,20.7029
1637208264633,106.1751,18.9727,19.4043
1637208264647,105.0611,18.3741,19.3115
1637208264663,103.3262,18.6462,18.5138
1637208264679,102.4862,17.8844,16.4361
1637208264693,103.3445,17.9207,16.6216
1637208264709,104.5863,19.136,16.7515
1637208264725,103.1984,19.9522,17.4564
1637208264741,102.3766,19.3536,16.9556
1637208264755,102.1575,19.1541,16.8814
1637208264771,103.2532,18.5011,16.3805
1637208264787,103.3445,19.408,17.9388
1637208264801,104.8968,18.6825,18.1057
1637208264817,104.842,19.1904,17.9944
1637208264833,105.5724,19.0634,19.0333
1637208264847,106.0107,18.3379,18.5324
1637208264863,104.6959,19.8978,17.4379
1637208264879,104.3854,20.6777,18.7921
1637208264893,103.1071,20.5145,18.5138
1637208264909,103.8923,20.2605,17.6048
1637208264925,104.9698,19.9885,17.1225
1637208264939,104.8602,19.3536,16.6402
1637208264955,104.5133,18.8276,15.824
1637208264971,103.5088,19.1541,15.824
1637208264985,103.4175,19.2266,14.7666
1637208265001,103.034,18.9908,14.4697
1637208265017,103.3993,19.0815,14.9892
1637208265031,102.9062,19.8615,16.6031
1637208265047,102.6323,18.1746,16.8999
1637208265063,103.7097,18.4648,18.4767
1637208265077,105.1889,19.2266,17.475
1637208265093,106.0655,19.0453,18.5695
1637208265109,105.7733,19.4262,18.3654
1637208265125,104.2758,18.1746,18.1985
1637208265139,104.7141,18.7732,18.4767
1637208265155,104.6411,18.4467,18.013
1637208265171,104.1115,18.5374,18.588
1637208265185,103.5819,18.8457,17.9944
1637208265201,103.0888,19.3899,17.679
1637208265217,102.5957,20.0792,17.4193
1637208265231,102.1027,20.2968,18.2727
1637208265247,102.7053,18.8639,18.588
1637208265263,104.3854,19.8252,18.0872
1637208265277,105.2437,19.934,18.1057
1637208265293,104.8785,20.0973,16.7701
1637208265309,104.2941,19.2266,16.8072
1637208265323,104.1115,19.0634,15.3045
1637208265339,103.8376,18.8457,15.9724
1637208265355,102.8149,19.2085,15.9909
1637208265369,102.3401,19.0634,16.0837
1637208265385,103.1436,18.7188,17.9202
1637208265401,103.6915,18.8639,17.475
1637208265415,103.8923,20.188,19.7568
1637208265431,102.1757,19.8071,17.8646
1637208265447,103.381,19.8615,18.3469
1637208265461,104.2393,20.7684,16.3063
1637208265477,104.6411,21.2219,17.1782
1637208265493,103.8558,19.9159,17.3637
1637208265509,104.2758,19.9159,18.384
1637208265523,105.1707,19.2811,16.3063
1637208265539,104.2393,18.5555,15.9353
1637208265555,103.3262,18.7369,17.2338
1637208265569,103.2349,21.2037,17.1225
1637208265585,103.8923,20.3331,15.6384
1637208265601,104.9515,20.2968,16.4361
1637208265615,104.8054,19.4262,17.1782
1637208265631,105.3716,20.4782,16.8628
1637208265647,104.7872,20.2061,16.9927
1637208265661,104.7507,19.4624,17.6605
1637208265677,103.8558,19.9885,16.8628
1637208265693,103.4358,19.6801,17.3451
1637208265707,103.8193,20.2243,15.6941
1637208265723,105.0976,21.113,15.8796
1637208265739,105.2803,20.5326,17.0854
1637208265753,103.6367,20.6233,16.0651
1637208265769,103.2897,21.113,17.104
1637208265785,102.8697,20.2968,16.2506
1637208265799,103.9471,20.4601,16.2506
1637208265815,103.9654,20.2424,17.2338
1637208265831,104.1115,20.0792,17.8275
1637208265845,104.0384,20.0973,17.1782
1637208265861,105.1707,20.9679,16.8072
1637208265877,104.8237,20.6959,16.4361
1637208265893,103.1619,21.0586,16.5103
1637208265907,103.2167,20.4782,15.3416
1637208265923,103.2532,18.9546,15.6941
1637208265939,102.8149,19.3899,16.3063
1637208265953,103.6732,20.2061,16.7701
1637208265969,103.381,19.662,17.8089
1637208265985,103.2714,19.408,17.6976
1637208265999,103.1436,19.8978,16.4547
1637208266015,102.8697,19.136,16.3434
1637208266031,103.1984,19.3536,15.8054
1637208266045,103.9471,18.6825,16.3434
1637208266061,104.6594,19.2992,18.217
1637208266077,105.2255,18.8639,16.9741
1637208266091,105.4994,18.8095,18.1243
1637208266107,105.6638,19.3718,17.9202
1637208266123,104.4219,18.7913,16.566
1637208266137,105.4264,18.5193,15.3973
1637208266153,104.3672,19.7164,16.2877
1637208266169,102.6688,18.7913,16.3805
1637208266183,103.1984,20.5145,17.6234
1637208266199,104.8602,19.7164,16.8443
1637208266215,104.2758,18.5555,16.2692
1637208266229,104.3854,18.9727,15.1932
1637208266245,103.801,19.2266,16.1764
1637208266261,103.6915,20.4782,17.3451
1637208266277,104.5498,21.1856,17.5677
1637208266291,104.4767,20.0066,16.0095
1637208266307,104.0019,19.3899,15.1747
1637208266323,102.6871,18.3197,15.8796
1637208266337,103.6367,19.1178,17.308
1637208266353,104.7689,19.9522,18.1614
1637208266369,105.7185,18.9727,18.8107
1637208266383,103.4541,18.6099,19.2373
1637208266399,103.7828,19.5169,20.0721
1637208266415,104.6411,19.4806,19.3672
1637208266429,103.7645,19.535,18.8663
1637208266445,103.3993,19.2992,15.5086
1637208266461,104.568,19.136,14.006
1637208266475,103.1071,18.6281,13.4494
1637208266491,101.6279,18.7732,16.3248
1637208266507,100.66,19.5169,16.0466
1637208266521,102.0662,21.2581,15.7869
1637208266537,103.5819,19.8796,16.1022
1637208266553,103.2714,18.882,17.4379
1637208266567,104.1663,19.0453,17.9388
1637208266583,104.5133,19.3718,17.9573
1637208266599,104.6776,18.7369,17.1782
1637208266613,105.8829,19.8978,16.9185
1637208266629,107.1065,22.02,17.2153
1637208266645,105.0429,20.8954,16.6402
1637208266661,104.3124,19.5169,16.9556
1637208266675,104.495,19.3899,17.475
1637208266691,103.6184,18.8276,16.7515
1637208266707,103.4541,19.0634,16.7515
1637208266721,103.4723,20.2061,15.1005
1637208266737,102.7784,19.2629,14.9335
1637208266753,103.1436,20.3149,16.1579
1637208266767,103.5819,18.7913,16.2877
1637208266783,104.148,19.934,16.3248
1637208266799,104.3672,19.934,15.2489
1637208266813,103.8741,20.2968,14.0802
1637208266829,103.7645,19.3355,14.8037
1637208266845,103.4723,19.1178,14.8408
1637208266859,103.5271,18.8276,16.9556
1637208266875,102.5044,18.5555,16.9185
1637208266891,103.308,18.6281,16.0651
1637208266905,102.6323,19.4987,13.7834
1637208266921,102.9792,19.934,15.49
1637208266937,103.7828,21.0223,16.9741
1637208266951,104.7141,19.8434,16.5103
1637208266967,103.7645,19.3718,15.6755
1637208266983,103.6002,20.0066,14.748
1637208266997,103.4906,20.8228,14.6738
1637208267013,103.7645,21.7842,14.7294
1637208267029,102.9792,20.2605,14.4697
1637208267045,102.9975,18.4104,14.21
1637208267059,103.728,20.2424,13.9318
1637208267075,102.8879,21.1856,14.2471
1637208267091,101.8835,21.2037,12.7074
1637208267105,103.7828,21.9474,14.7109
1637208267121,104.1115,20.2605,16.028
1637208267137,104.6776,19.8252,14.8779
1637208267151,105.4081,20.587,13.0784
1637208267167,105.8646,20.0973,11.65
1637208267183,104.9515,21.1675,13.5978
1637208267197,104.7324,21.9293,13.0228
1637208267213,105.7185,23.7612,13.6535
1637208267229,106.102,22.0562,13.2268
1637208267243,105.5177,20.3694,12.2622
1637208267259,104.4585,20.188,12.559
1637208267275,104.3672,19.7708,12.6332
1637208267289,103.9471,19.0271,12.2622
1637208267305,103.6184,20.587,12.8744
1637208267321,101.9748,21.3488,13.468
1637208267335,101.8653,21.8748,14.1173
1637208267351,102.5044,21.1675,13.2639
1637208267367,102.8332,19.7164,13.2825
1637208267381,103.5819,19.4443,11.7427
1637208267397,105.8646,19.934,11.3903
1637208267413,106.6134,20.3331,11.7242
1637208267429,105.9742,21.6935,12.3549
1637208267443,105.1159,22.3646,14.6181
1637208267459,103.5088,21.893,14.1358
1637208267475,102.5227,22.6548,15.0448
1637208267489,102.2853,21.0042,12.1323
1637208267505,102.5227,20.1698,12.763
1637208267521,103.7463,20.7321,12.763
1637208267535,104.2758,22.0562,14.1544
1637208267551,103.801,21.4214,15.6013
1637208267567,102.4131,21.1856,14.0802
1637208267581,102.7236,21.9293,13.1526
1637208267597,102.7601,21.8204,11.7613
1637208267613,104.4402,23.1627,13.5793
1637208267627,104.9515,23.3622,12.8187
1637208267643,104.4585,21.0768,11.2419
1637208267659,104.4402,20.6596,11.5758
1637208267673,104.2393,20.5507,12.8929
1637208267689,103.7463,21.5484,14.9706
1637208267705,102.8697,22.6185,14.748
1637208267719,102.8879,22.0744,13.7091
1637208267735,103.4541,22.5822,12.9857
1637208267751,104.3854,22.7999,13.0784
1637208267765,104.8785,23.8701,12.3364
1637208267781,104.4585,22.8906,12.0767
1637208267797,103.9654,22.7636,13.2454
1637208267813,104.4402,22.8362,14.1544
1637208267827,106.2481,23.0538,12.7816
1637208267843,105.4994,22.4009,12.7259
1637208267859,105.0246,21.4577,12.6703
1637208267873,104.4585,23.1989,11.5387
1637208267889,103.3262,23.1264,11.112
1637208267905,103.4358,22.7636,13.0413
1637208267919,104.0202,22.5278,12.2993
1637208267935,105.5542,22.3646,10.574
1637208267951,106.2116,23.6524,10.1288
1637208267965,104.7872,22.9631,9.8691
1637208267981,103.7645,21.7479,9.665
1637208267997,102.541,22.4009,9.6279
1637208268011,102.9792,23.2352,10.37
1637208268027,102.0844,23.7975,10.8709
1637208268043,102.4862,23.9063,11.1677
1637208268057,103.5271,23.7068,9.1456
1637208268073,104.5863,23.7068,9.7763
1637208268089,105.0794,23.9608,7.9955
1637208268103,104.8968,23.6161,9.8506
1637208268119,104.6228,22.3827,9.9804
1637208268135,103.8923,23.2715,11.0935
1637208268149,103.6367,24.1784,11.7242
1637208268165,104.0932,23.9245,11.3346
1637208268181,104.2758,23.9608,10.5555
1637208268197,103.8741,23.2534,9.9804
1637208268211,104.4585,22.7455,10.4071
1637208268227,103.0888,23.997,9.8691
1637208268243,103.6184,25.0853,11.1306
1637208268257,102.961,25.8109,10.3329
1637208268273,104.148,25.303,9.7021
1637208268289,104.0932,24.251,7.9027
1637208268303,105.0794,22.9269,9.665
1637208268319,106.4308,23.7975,10.908
1637208268335,106.3212,23.9245,9.0714
1637208268349,104.4219,23.9245,7.9769
1637208268365,103.7645,24.2147,8.2737
1637208268381,103.3993,24.3054,9.1642
1637208268395,102.267,24.4505,9.3126
1637208268411,102.3766,24.3961,9.3311
1637208268427,102.9062,23.8701,8.3294
1637208268441,102.6505,25.3393,9.8691
1637208268457,103.4723,25.1942,9.1827
1637208268473,103.8923,23.8338,8.5705
1637208268487,104.2028,24.7044,10.1103
1637208268503,104.1845,24.4505,10.4813
1637208268519,104.4037,23.8338,9.1456
1637208268533,104.3124,23.997,6.9752
1637208268549,103.381,24.0514,7.3091
1637208268565,103.801,24.0152,8.4221
1637208268581,103.7828,24.8133,8.3479
1637208268595,104.2211,25.1397,7.2349
1637208268611,103.9106,23.8882,7.105
1637208268627,104.0567,24.7226,6.196
1637208268641,104.4219,23.5799,7.9769
1637208268657,104.6776,23.7975,9.9062
1637208268673,104.2758,23.8519,10.5926
1637208268687,104.148,23.5436,8.4963
1637208268703,105.2437,24.6682,7.9955
1637208268719,104.2028,24.4686,8.8488
1637208268733,103.2714,23.8338,8.6447
1637208268749,103.9289,24.65,8.923
1637208268765,103.2349,23.471,8.3665
1637208268779,102.7784,23.1627,9.5908
1637208268795,102.2122,23.5617,8.9787
1637208268811,103.4906,23.2534,9.0343
1637208268825,104.2941,22.9269,9.4239
1637208268841,103.4175,24.6863,9.4981
1637208268857,103.5271,24.7044,8.1995
1637208268871,104.8054,23.1989,8.5334
1637208268887,104.7689,23.4166,8.2737
1637208268903,104.5315,22.3464,6.6041
1637208268917,105.1524,22.3102,8.3479
1637208268933,104.0019,22.6004,7.9398
1637208268949,103.6732,23.8156,8.3108
1637208268965,104.148,24.8133,8.8302
1637208268979,105.0429,24.7951,9.6465
1637208268995,104.6776,23.9426,8.3479
1637208269011,103.6367,24.2147,6.7711
1637208269025,104.4037,23.7975,7.6244
1637208269041,103.728,23.5436,8.9601
1637208269057,105.0794,23.7975,9.8506
1637208269071,105.262,24.251,8.2366
1637208269087,104.6776,23.1264,7.6059
1637208269103,104.9881,23.598,7.2349
1637208269117,103.6184,22.9269,7.6615
1637208269133,103.1801,23.4347,8.5891
1637208269149,103.308,24.1966,9.1642
1637208269163,104.495,24.8495,7.9769
1637208269179,104.915,23.1083,6.567
1637208269195,104.9698,22.9269,6.8267
1637208269209,104.6594,23.2352,7.5873
1637208269225,104.2758,24.1421,6.6598
1637208269241,104.7872,23.0357,6.1218
1637208269255,105.1342,23.1989,5.8621
1637208269271,105.6455,22.8725,6.4001
1637208269287,104.0019,22.6004,5.3056
1637208269301,103.728,22.6729,5.7879
1637208269317,103.7097,23.2896,7.4575
1637208269333,102.4497,23.6161,6.6783
1637208269349,104.0384,24.4142,6.9752
1637208269363,104.1298,23.1264,7.1236
1637208269379,105.7185,23.6343,5.3612
1637208269395,104.3854,23.4529,7.3647
1637208269409,103.801,24.777,7.9955
1637208269425,102.9975,24.5593,7.6801
1637208269441,102.8879,23.7612,8.1068
1637208269455,103.8923,24.65,8.9045
1637208269471,103.8923,25.1397,8.4778
1637208269487,104.1845,24.8858,7.2534
1637208269501,105.1524,24.904,7.1607
1637208269517,104.0202,23.9426,7.2534
1637208269533,104.5315,23.4892,8.3294
1637208269547,104.8785,22.8725,8.8488
1637208269563,102.9975,23.7068,8.0511
1637208269579,103.6367,22.6004,7.7914
1637208269593,104.6594,22.0018,8.9045
1637208269609,104.3672,24.3598,8.7004
1637208269625,103.2897,24.65,8.1995
1637208269639,103.7463,23.1627,7.8285
1637208269655,103.6002,24.2147,10.4442
1637208269671,102.6323,24.3054,9.3497
1637208269685,102.8879,24.1966,8.3108
1637208269701,103.6367,23.7794,6.4372
1637208269717,103.2349,23.6887,8.1068
1637208269733,103.8923,22.7273,8.8674
1637208269747,104.0567,22.2558,8.5149
1637208269763,104.8054,22.4371,7.847
1637208269779,105.4811,23.5254,7.0865
1637208269793,104.7689,26.0104,6.901
1637208269809,103.2167,24.7588,8.1995
1637208269825,104.075,23.4892,8.6076
1637208269839,103.1436,23.2715,8.4221
1637208269855,103.1619,22.945,7.6615
1637208269871,104.2758,22.0381,8.4778
1637208269885,103.381,22.6004,8.0511
1637208269901,103.8376,24.0333,9.1642
1637208269917,103.6367,25.0853,10.6668
1637208269931,104.4037,25.9741,9.4981
1637208269947,103.8923,23.725,7.9955
1637208269963,102.8879,21.8023,8.2737
1637208269977,102.1392,23.6524,9.1456
1637208269993,103.1436,23.8338,9.4424
1637208270009,105.3533,24.3961,9.7949
1637208270023,106.3942,24.4868,10.2401
1637208270039,104.3306,24.2328,9.8877
1637208270055,103.381,23.7068,8.1439
1637208270069,105.5907,24.9221,8.0882
1637208270085,104.7689,24.9584,7.3276
1637208270101,103.308,24.5049,6.6783
1637208270117,103.8193,23.7975,9.0158
1637208270131,103.801,24.4324,9.1642
1637208270147,103.728,24.8858,8.0882
1637208270163,104.7872,24.8314,10.1474
1637208270177,104.6046,25.5207,8.2923
1637208270193,105.0976,25.2486,7.9769
1637208270209,104.7324,24.4686,8.5891
1637208270223,104.3124,25.1035,9.7021
1637208270239,104.0932,24.6682,8.7375
1637208270255,104.7689,24.5593,7.8842
1637208270269,105.2255,24.3961,8.3665
1637208270285,104.1298,24.2691,7.9213
1637208270301,104.4219,23.6887,7.2534
1637208270315,105.2255,24.0877,9.1642
1637208270331,104.4767,24.9765,10.0732
1637208270347,104.0932,24.6682,10.2958
1637208270361,104.6046,24.0152,9.1085
1637208270377,105.0063,25.5025,8.1995
1637208270393,104.568,25.8471,8.6633
1637208270407,105.3168,24.777,9.3868
1637208270423,105.0063,24.8677,8.923
1637208270439,104.2758,23.5436,8.1253
1637208270453,104.6594,23.598,6.734
1637208270469,104.9515,23.4529,5.9734
1637208270485,104.842,22.7455,7.9398
1637208270501,104.5498,22.6911,9.2755
1637208270515,103.6549,23.4529,8.9601
1637208270531,104.8054,23.471,7.643
1637208270547,103.9654,23.2715,9.5166
1637208270561,103.4723,23.9063,9.294
1637208270577,103.9471,24.2691,7.272
1637208270593,104.3489,23.6705,8.2181
1637208270607,104.2758,23.7068,8.6447
1637208270623,104.4037,23.4166,8.1995
1637208270639,104.4585,23.9789,7.105
1637208270653,104.7141,24.2691,7.0308
1637208270669,103.9654,24.65,8.181
1637208270685,104.8968,24.4505,7.7914
1637208270699,105.0794,23.8519,7.9213
1637208270715,104.0019,24.5775,8.2923
1637208270731,103.6732,24.3779,7.2905
1637208270745,104.0567,26.1555,7.7914
1637208270761,103.8558,25.1035,9.0343
1637208270777,104.1115,25.3755,9.4981
1637208270791,104.3854,24.7588,8.8674
1637208270807,104.8785,25.3211,7.5688
1637208270823,104.2211,25.1942,6.9937
1637208270837,104.5315,24.8677,7.7357
1637208270853,105.262,23.9245,8.0882
1637208270869,103.801,23.997,8.756
1637208270885,104.7324,23.8519,8.5149
1637208270899,105.0611,23.598,7.4389
1637208270915,104.5498,22.4553,7.643
1637208270931,104.4219,22.8543,8.0697
1637208270945,105.2072,24.9402,8.5149
1637208270961,104.5863,24.4505,7.4946
1637208270977,104.4585,23.8701,8.2923
1637208270991,104.8968,25.43,10.9265
1637208271007,104.4585,25.1397,9.7949
1637208271023,103.9471,23.1445,8.1995
1637208271037,104.3672,23.3259,7.2163
1637208271053,104.7507,24.4686,7.2905
1637208271069,103.9654,25.7565,8.6447
1637208271083,105.5177,24.6682,8.3665
1637208271099,105.7368,24.0877,7.4575
1637208271115,105.262,25.0491,7.6244
1637208271129,104.7689,25.1579,9.0343
1637208271145,104.0019,25.0491,8.7931
1637208271161,102.9427,25.4662,6.8453
1637208271175,103.3993,25.3755,7.9213
1637208271191,104.3306,24.4868,7.6615
1637208271207,104.5133,25.0672,6.1404
1637208271221,104.4037,24.523,6.7711
1637208271237,104.9698,25.1216,7.476
1637208271253,104.915,23.5617,7.8285
1637208271269,104.9698,24.0333,8.4221
1637208271283,103.8193,23.997,7.2349
1637208271299,102.7601,23.6343,6.1033
1637208271315,103.4541,24.0514,8.6818
1637208271329,104.4219,23.8519,9.3497
1637208271345,104.7872,24.7226,8.181
1637208271361,104.8237,24.1966,6.9937
1637208271375,103.8376,22.9994,7.6615
1637208271391,103.9289,23.2715,7.6801
1637208271407,104.2393,23.7612,6.8453
1637208271421,103.0706,24.2872,8.5891
1637208271437,103.6367,24.0514,9.2569
1637208271453,105.1889,24.2147,9.9619
1637208271467,105.1342,24.3598,7.9769
1637208271483,105.0976,23.3441,6.6598
1637208271499,105.5177,23.2896,8.2737
1637208271513,104.6228,24.4324,7.7172
1637208271529,104.1115,24.1603,7.5317
1637208271545,104.9881,23.8519,7.9398
1637208271559,104.8785,24.6319,8.8488
1637208271575,103.1071,23.997,7.7172
1637208271591,102.4314,23.4347,7.105
1637208271605,103.8376,23.7612,7.8842
1637208271621,105.262,24.8133,7.9213
1637208271637,104.0202,24.3598,7.9213
1637208271653,103.5636,24.3235,7.6059
1637208271667,104.2211,25.1579,7.0308
1637208271683,103.4358,24.9402,8.1995
1637208271699,103.2897,23.8156,9.8877
1637208271713,103.8923,24.3961,9.7021
1637208271729,104.1298,25.6839,9.5908
1637208271745,102.5227,25.1397,7.1421
1637208271759,103.1984,24.124,7.2534
1637208271775,104.8054,22.8725,7.0308
1637208271791,105.6272,23.3622,8.0326
1637208271805,105.3168,23.8701,9.2384
1637208271821,104.9515,24.5593,7.5131
1637208271837,105.7733,23.7612,5.9549
1637208271851,106.029,23.0176,7.4575
1637208271867,104.915,23.471,8.3108
1637208271883,104.3672,24.8133,8.3294
1637208271897,104.4037,23.6161,7.6615
1637208271913,104.4585,24.3235,9.2755
1637208271929,104.842,24.4868,8.1624
1637208271943,103.3628,24.6319,7.3276
1637208271959,103.2349,22.7818,6.4372
1637208271975,104.7141,23.0176,7.3647
1637208271989,104.915,22.419,7.0494
1637208272005,103.5271,22.4916,7.5317
1637208272021,103.381,23.3985,7.1236
1637208272037,103.5088,24.904,7.9027
1637208272051,105.0794,24.4868,8.6447
1637208272067,104.1663,24.1784,8.8674
1637208272083,104.1298,25.6476,9.7392
1637208272097,104.7689,25.1942,8.552
1637208272113,103.6184,24.0152,7.5688
1637208272129,103.1984,23.6343,7.8842
1637208272143,102.5592,24.0514,6.0476
1637208272159,103.9106,23.9426,6.1775
1637208272175,103.3628,23.1627,6.3259
1637208272189,103.0523,22.8725,6.7711
1637208272205,105.0429,22.6548,7.2534
1637208272221,105.0794,22.546,7.3833
1637208272235,104.3672,23.5073,6.3444
1637208272251,103.7828,23.8156,5.9363
1637208272267,104.075,23.3985,7.3091
1637208272281,103.9289,23.5073,9.2569
1637208272297,105.1524,24.3779,7.6986
1637208272313,104.3672,24.8858,7.2534
1637208272327,104.7872,23.7068,7.4018
1637208272343,104.2576,23.7794,6.0291
1637208272359,103.7828,23.6705,6.4928
1637208272373,103.5454,25.2486,7.643
1637208272389,104.0567,24.6137,7.0308
1637208272405,102.9062,24.0152,6.7711
1637208272421,103.6184,24.8133,7.5688
1637208272435,104.2028,24.7044,8.0326
1637208272451,103.4175,25.5751,7.1607
1637208272467,103.6915,25.5932,7.1421
1637208272481,104.495,25.1035,7.7914
1637208272497,104.915,24.5775,5.5096
1637208272513,104.568,23.4892,6.1775
1637208272527,103.034,24.3417,7.3091
1637208272543,102.7784,23.5073,7.8656
1637208272559,104.7689,22.9994,7.9027
1637208272573,104.8602,24.7407,7.4018
1637208272589,103.8741,23.5799,5.4354
1637208272605,104.9333,22.818,8.5149
1637208272619,104.9333,23.8701,9.5352
1637208272635,103.6549,25.2123,8.8488
1637208272651,104.568,23.7612,6.9937
1637208272665,104.842,22.6185,7.5688
1637208272681,104.2758,22.2739,6.8824
1637208272697,103.9654,23.1989,7.9027
1637208272711,103.4906,23.5436,8.1253
1637208272727,102.9792,23.6887,9.1271
1637208272743,104.1298,24.0152,7.6801
1637208272757,104.6776,24.0696,7.1792
1637208272773,105.0794,22.5641,6.0291
1637208272789,105.1159,22.5097,7.1421
1637208272805,103.7097,22.5822,7.7172
1637208272819,105.3168,23.1989,7.5688
1637208272835,104.8602,23.8882,8.0882
1637208272851,103.4541,24.0514,7.5131
1637208272865,102.961,24.4868,8.2181
1637208272881,102.5592,23.8156,10.3885
1637208272897,103.9106,25.8109,10.8523
1637208272911,104.7872,25.0853,8.5705
1637208272927,105.0063,22.0018,8.014
1637208272943,104.9881,23.1989,7.6059
1637208272957,105.5359,23.8156,8.9787
1637208272973,104.568,23.3078,8.756
1637208272989,104.1663,23.5254,7.3091
1637208273003,105.3168,23.1808,8.2552
1637208273019,105.0063,24.6682,8.6447
1637208273035,103.381,24.2147,7.9769
1637208273049,102.961,23.9426,8.6633
1637208273065,104.0019,23.3078,9.2013
1637208273081,104.6594,23.6343,8.4407
1637208273095,103.801,24.65,8.2737
1637208273111,103.8741,25.0853,8.6447
1637208273127,104.9515,24.5593,8.1253
1637208273143,104.9881,25.3211,8.5891
1637208273157,105.956,24.4505,8.2366
1637208273173,104.6411,22.8725,9.09
1637208273189,104.0202,23.2352,8.8117
1637208273203,104.5133,23.8519,6.6041
1637208273219,104.6776,23.3078,7.847
1637208273235,104.4037,21.9111,7.2163
1637208273249,105.1524,21.1856,8.923
1637208273265,103.6549,21.7842,8.5149
1637208273281,103.1253,22.8543,7.3276
1637208273295,103.5636,22.6004,7.0308
1637208273311,104.0567,23.1445,6.7896
1637208273327,104.3124,23.7794,7.0679
1637208273341,105.0611,24.4505,7.476
1637208273357,104.8237,22.945,6.7154
1637208273373,104.9333,22.7818,8.1995
1637208273387,103.1253,22.7455,7.7914
1637208273403,103.308,23.1808,7.6801
1637208273419,103.1801,23.1989,6.1404
1637208273433,103.6732,22.7092,6.0476
1637208273449,103.0706,22.2376,6.9937
1637208273465,102.6871,23.2171,7.2163
1637208273479,103.5454,23.1627,7.0494
1637208273495,105.0429,23.8701,8.9601
1637208273511,104.3854,22.7999,7.7357
1637208273527,105.0246,22.6548,6.2702
1637208273541,104.6411,22.9994,6.196
1637208273557,103.9837,22.7092,6.5485
1637208273573,104.1663,22.6367,7.2905
1637208273587,104.0384,23.8156,7.9769
1637208273603,103.8923,23.2171,7.6986
1637208273619,103.6549,23.3985,7.4575
1637208273633,103.4175,23.7975,8.2181
1637208273649,104.2941,23.5073,7.0679
1637208273665,104.3124,23.2715,6.0662
1637208273679,103.4175,21.7479,6.5856
1637208273695,103.1253,23.4892,7.4575
1637208273711,103.2349,24.7044,7.8656
1637208273725,103.308,25.3393,8.4036
1637208273741,103.034,24.0333,7.6059
1637208273757,103.3993,24.5049,7.8842
1637208273771,103.1436,23.7431,6.0847
1637208273787,103.0158,23.072,6.5114
1637208273803,104.7324,23.2171,7.6801
1637208273817,104.7141,23.9789,9.1085
1637208273833,105.3533,24.3235,9.4053
1637208273849,104.6411,23.7794,7.9769
1637208273863,104.0384,24.3417,7.5131
1637208273879,104.5133,24.4142,7.3833
1637208273895,104.568,22.6185,7.4204
1637208273911,104.4402,23.997,7.3462
1637208273925,105.5542,24.4868,7.3462
1637208273941,104.9698,23.0176,8.5149
1637208273957,103.1436,22.1832,6.5856
1637208273971,104.2028,22.6729,6.7525
1637208273987,103.5636,23.6524,8.5149
1637208274003,104.8237,24.1784,10.0175
1637208274017,104.5133,23.7068,8.756
1637208274033,105.2072,23.5436,9.3868
1637208274049,104.8968,23.4529,7.7543
1637208274063,104.2576,23.3803,6.567
1637208274079,105.0246,23.5254,7.105
1637208274095,104.2393,23.3803,6.4557
1637208274109,104.2758,23.598,7.0308
1637208274125,104.0384,24.251,6.8824
1637208274141,104.2211,23.2352,5.9363
1637208274155,103.6367,23.3078,6.0291
1637208274171,103.6915,22.818,6.734
1637208274187,103.2897,23.598,6.9937
1637208274201,105.2985,24.3054,7.4946
1637208274217,105.3533,24.2872,7.1792
1637208274233,104.4767,23.2534,8.181
1637208274247,105.4081,23.0538,7.5688
1637208274263,105.1889,22.292,8.4221
1637208274279,104.0932,23.7068,8.9601
1637208274295,103.9654,23.4892,8.385
1637208274309,104.1115,23.3622,7.6615
1637208274325,104.3672,23.1083,7.0865
1637208274341,103.3628,23.1808,6.6227
1637208274355,103.7097,24.777,6.734
1637208274371,103.6732,24.3417,6.9566
1637208274387,104.4037,24.3054,7.105
1637208274401,104.2028,23.725,6.9566
1637208274417,104.1298,23.997,5.8992
1637208274433,104.2758,24.9402,6.9752
1637208274447,105.7916,24.5049,8.1253
1637208274463,104.8602,23.8338,6.3815
1637208274479,103.1801,23.4892,5.4725
1637208274493,103.4358,22.9269,6.9195
1637208274509,103.1436,23.1989,6.1775
1637208274525,103.9837,22.8725,6.9381
1637208274539,105.4811,23.2715,7.272
1637208274555,105.1707,23.5799,7.3647
1637208274571,106.1751,24.1421,7.2905
1637208274585,104.6594,24.5049,7.8842
1637208274601,104.1115,24.8133,6.5299
1637208274617,102.8514,22.7999,6.6969
1637208274631,104.2941,23.7612,6.4557
1637208274647,104.3672,24.0514,6.1775
1637208274663,104.6776,23.2715,7.9584
1637208274679,104.568,23.4166,7.5502
1637208274693,104.7507,24.4142,9.4424
1637208274709,103.308,24.523,7.2905
1637208274725,104.4037,22.5822,7.5131
1637208274739,103.5636,23.2896,7.7357
1637208274755,104.842,23.9426,8.9416
1637208274771,104.3854,24.4505,7.5873
1637208274785,104.9515,24.7951,8.014
1637208274801,105.3168,24.251,6.5856
1637208274817,104.8054,22.8543,6.4372
1637208274831,106.1934,23.5617,8.0326
1637208274847,104.9881,24.8133,8.0326
1637208274863,105.2985,22.9631,8.2552
1637208274877,105.1342,23.8156,8.014
1637208274893,104.0932,23.3078,8.0326
1637208274909,103.8558,22.8362,7.2905
1637208274923,103.8193,23.5617,7.7357
1637208274939,102.7784,23.4892,7.5873
1637208274955,103.5819,22.6729,6.1218
1637208274969,103.7645,22.8362,6.6412
1637208274985,104.0384,23.3622,5.454
1637208275001,104.5315,22.6729,5.5653
1637208275015,105.1159,23.471,7.1792
1637208275031,105.8281,23.2171,7.9398
1637208275047,105.4446,23.2715,8.2923
1637208275063,105.0611,24.6319,8.4592
1637208275077,104.6046,23.9608,7.1792
1637208275093,104.9515,23.2352,6.363
1637208275109,105.0063,24.1603,5.4169
1637208275123,104.6228,23.8701,6.0476
1637208275139,103.5271,24.2691,6.9195
1637208275155,103.6002,24.7226,8.9601
1637208275169,104.4219,24.777,7.9769
1637208275185,104.4219,24.0696,6.5856
1637208275201,104.1845,23.0538,8.1624
1637208275215,105.5359,23.4166,8.0882
1637208275231,104.4037,24.2691,7.5317
1637208275247,103.5271,23.7431,7.105
1637208275261,105.2072,23.7975,7.2534
1637208275277,105.1524,22.6729,6.0847
1637208275293,103.6732,22.2739,7.5873
1637208275307,104.5498,23.9426,7.7728
1637208275323,104.0384,25.0309,8.4778
1637208275339,103.4358,24.4324,7.0123
1637208275353,103.6184,22.3102,7.5317
1637208275369,102.7418,22.3646,7.0494
1637208275385,102.5775,24.3054,6.8267
1637208275399,103.6732,22.9087,7.3647
1637208275415,104.8968,23.3078,7.8842
1637208275431,105.5359,22.6367,7.3833
1637208275447,105.1342,23.9063,8.2737
1637208275461,103.6002,23.9789,7.1421
1637208275477,102.961,23.1264,5.2685
1637208275493,103.2897,23.4347,7.1421
1637208275507,104.6594,23.5436,7.3833
1637208275523,104.4585,22.9087,9.5723
1637208275539,103.6184,22.6004,9.1085
1637208275553,103.7828,23.2171,7.5873
1637208275569,103.4175,22.7092,7.0679
1637208275585,104.0932,23.2896,6.1218
1637208275599,104.6046,24.3417,7.2905
1637208275615,104.5133,25.1579,7.8842
1637208275631,104.4037,23.598,8.5891
1637208275645,104.3672,23.2534,7.1421
1637208275661,103.5271,23.3441,6.2702
1637208275677,103.7463,23.4347,7.5688
1637208275691,102.6688,22.8906,7.1421
1637208275707,104.8237,23.8701,6.8824
1637208275723,104.8602,23.6705,5.5282
1637208275737,104.568,25.3211,6.2517
1637208275753,104.0567,23.5617,6.6598
1637208275769,104.4767,21.9474,8.8488
1637208275783,104.148,20.9679,9.1085
1637208275799,104.6411,22.7092,8.2923
1637208275815,104.6594,23.5436,8.1253
1637208275831,103.7645,22.546,7.5317
1637208275845,103.3628,22.546,7.6801
1637208275861,103.8741,22.0562,7.1792
1637208275877,104.3854,23.5254,6.8082
1637208275891,104.2941,24.0152,6.9937
1637208275907,104.4219,22.9994,5.8435
1637208275923,104.7689,23.3259,6.9195
1637208275937,104.915,24.4868,7.3091
1637208275953,103.9837,22.4734,6.7711
1637208275969,103.6184,22.3646,5.8806
1637208275983,104.1115,24.65,7.643
1637208275999,104.2941,24.4505,8.6076
1637208276015,106.0838,24.8495,8.756
1637208276029,105.0429,22.8725,8.1068
1637208276045,103.6732,21.766,7.1792
1637208276061,101.774,22.4371,7.4389
1637208276075,103.034,24.0696,8.8859
1637208276091,103.6002,24.5956,9.1642
1637208276107,102.9975,24.251,8.7189
1637208276121,104.4219,24.5775,6.1589
1637208276137,103.8376,23.997,6.3815
1637208276153,105.0976,24.4142,7.0308
1637208276167,104.8054,24.7951,8.8488
1637208276183,105.5359,24.3598,8.1068
1637208276199,104.3489,24.1784,7.7357
1637208276215,104.6959,24.3054,6.5856
1637208276229,103.6732,24.5412,7.1607
1637208276245,103.3262,24.5593,8.7004
1637208276261,103.5454,24.0333,7.6244
1637208276275,104.8602,24.251,5.9734
1637208276291,105.5542,24.6682,5.0088
1637208276307,104.4585,24.9584,6.6969
1637208276321,104.1845,25.9197,8.7189
1637208276337,104.4037,26.0467,8.6262
1637208276353,104.495,25.4118,7.2163
1637208276367,105.1159,25.43,6.1404
1637208276383,104.4402,26.355,5.4169
1637208276399,104.4037,25.8471,5.8435
1637208276413,102.7418,24.3054,6.0476
1637208276429,102.4679,24.7407,6.7711
1637208276445,102.9975,24.8495,6.3815
1637208276459,104.3124,25.2123,4.9902
1637208276475,104.4037,25.1035,6.7525
1637208276491,104.8785,26.3369,9.3682
1637208276505,104.148,26.9899,10.574
1637208276521,104.6046,25.8834,8.8859
1637208276537,104.8237,25.4481,4.8418
1637208276551,103.8558,25.2667,4.4708
1637208276567,103.0888,26.0467,4.7861
1637208276583,103.8193,25.8653,5.2685
1637208276599,106.3395,26.8629,6.2702
1637208276613,106.4125,27.1894,5.8621
1637208276629,105.1342,26.8266,6.0476
1637208276645,104.3124,25.6839,6.1218
1637208276659,104.6228,26.1555,8.0882
1637208276675,104.2028,26.1374,7.6615
1637208276691,103.6732,25.956,7.1607
1637208276705,104.4402,27.1712,7.5688
1637208276721,105.2072,26.8448,7.5688
1637208276737,104.2758,26.3187,6.9566
1637208276751,105.7185,27.3345,5.8992
1637208276767,106.5586,25.1035,5.2499
1637208276783,103.8923,24.8677,4.9346
1637208276797,104.7324,24.7951,5.8621
1637208276813,103.4175,24.6137,6.4186
1637208276829,102.7418,24.8858,6.7896
1637208276843,104.2393,25.2849,6.5299
1637208276859,104.2576,25.9197,7.2905
1637208276875,103.7097,24.5049,7.1236
1637208276889,104.7324,24.3961,6.1218
1637208276905,103.801,25.6295,6.8267
1637208276921,104.2576,25.4481,5.8621
1637208276935,105.2437,25.1942,6.1404
1637208276951,104.5315,25.4844,6.0847
1637208276967,104.3489,24.8495,6.3073
1637208276983,104.6228,24.8495,7.3833
1637208276997,103.3628,25.2486,7.4204
1637208277013,102.541,24.1059,5.3427
1637208277029,103.6732,23.6887,5.3056
1637208277043,103.5088,24.1059,5.7879
1637208277059,103.4358,24.4324,6.9195
1637208277075,103.5454,24.3235,7.1792
1637208277089,103.1253,25.176,6.4928
1637208277105,105.1342,23.9608,6.9381
1637208277121,105.9925,25.2849,5.4354
1637208277135,105.3168,24.5956,6.9566
1637208277151,104.495,23.6887,7.9398
1637208277167,103.5819,24.8858,5.9178
1637208277181,104.7689,25.0672,6.8638
1637208277197,102.961,25.3393,6.8267
1637208277213,103.6184,25.8109,5.8064
1637208277227,104.0202,26.4276,6.6227
1637208277243,102.8332,26.1011,6.8267
1637208277259,103.0523,25.43,6.9195
1637208277273,103.2897,24.9765,7.5131
1637208277289,103.5271,23.3803,6.4001
1637208277305,103.5636,23.7975,7.2349
1637208277319,105.335,24.0333,7.3833
1637208277335,106.4855,24.3779,6.8267
1637208277351,105.7916,25.0309,6.9195
1637208277367,104.6228,24.9584,7.4946
1637208277381,104.6594,25.8471,7.2534
1637208277397,104.4219,26.2643,6.6227
1637208277413,104.915,25.3393,6.734
1637208277427,105.4081,25.4118,6.1218
1637208277443,104.6411,25.1035,5.8064
1637208277459,104.9515,24.7951,5.3612
1637208277473,105.0794,24.904,5.5282
1637208277489,105.8099,24.8495,6.9937
1637208277505,104.7324,25.3937,7.5688
1637208277519,104.8237,24.5593,7.5688
1637208277535,104.3489,24.8495,6.7525
1637208277551,104.4037,24.1421,6.6412
1637208277565,104.568,23.7612,7.105
1637208277581,104.2393,23.7431,6.8453
1637208277597,105.2255,23.5073,7.7914
1637208277611,103.9837,23.3259,7.6986
1637208277627,103.2897,24.1784,7.3462
1637208277643,103.9471,23.6887,5.4911
1637208277657,104.3489,24.7226,6.6412
1637208277673,104.6228,25.8834,4.8974
1637208277689,103.6367,25.0491,4.0441
1637208277703,105.0976,25.2667,5.6395
1637208277719,104.7324,25.8653,6.5485
1637208277735,103.4723,24.4142,5.9178
1637208277751,102.6871,23.4166,5.5467
1637208277765,103.308,23.5799,4.8047
1637208277781,104.4767,24.1966,3.9328
1637208277797,105.7916,26.0829,6.0847
1637208277811,105.0246,26.1011,7.6986
1637208277827,104.1298,26.0829,7.8656
1637208277843,104.4585,25.176,6.6598
1637208277857,103.7097,24.8858,5.8064
1637208277873,104.4402,24.9221,5.8435
1637208277889,105.7916,24.9221,5.7508
1637208277903,105.1159,24.7588,5.6766
1637208277919,103.9471,23.4892,4.4708
1637208277935,104.4219,24.3598,5.3427
1637208277949,105.0246,26.3187,4.6748
1637208277965,105.1159,25.4844,5.8992
1637208277981,103.7828,25.0853,7.9769
1637208277995,103.2897,26.4638,9.5537
1637208278011,104.2758,26.2462,7.3091
1637208278027,102.9792,26.1192,7.272
1637208278041,103.1984,26.2281,8.1624
1637208278057,102.2853,24.4142,8.4036
1637208278073,102.614,24.523,7.5502
1637208278087,103.0706,25.1579,8.4778
1637208278103,103.2167,26.5545,7.9955
1637208278119,102.3036,25.829,7.847
1637208278135,104.4585,24.5412,6.9381
1637208278149,105.335,25.7927,7.4575
1637208278165,104.1663,25.6658,8.1439
1637208278181,103.0706,25.8471,8.2737
1637208278195,103.6002,25.2486,6.1033
1637208278211,103.4541,24.3235,5.6951
1637208278227,104.2028,24.4868,7.4389
1637208278241,103.6367,24.7044,6.8824
1637208278257,104.5315,26.3187,6.1033
1637208278273,105.1524,25.956,6.196
1637208278287,104.2393,25.3574,7.6986
1637208278303,103.1801,26.5001,7.9398
1637208278319,103.5636,25.7565,7.4389
1637208278333,103.728,25.6113,6.9381
1637208278349,103.1984,25.1397,7.105
1637208278365,102.6323,24.4686,7.9955
1637208278379,102.8514,24.6863,7.5317
1637208278395,103.9289,24.8858,6.2888
1637208278411,104.2941,25.1035,7.0679
1637208278425,104.3489,26.1555,5.4354
1637208278441,104.2393,25.0491,7.847
1637208278457,103.1436,23.7431,8.9601
1637208278471,104.6046,24.4324,7.105
1637208278487,105.0063,25.1035,6.1775
1637208278503,104.8968,25.5751,7.8099
1637208278519,105.4994,25.5207,9.1456
1637208278533,104.7689,25.5025,8.6633
1637208278549,103.9289,25.2667,7.1607
1637208278565,105.1889,24.523,8.2737
1637208278579,105.8099,24.8858,8.4592
1637208278595,103.4541,24.777,8.1068
1637208278611,103.7645,25.6295,8.2552
1637208278625,103.4175,25.7383,7.0679
1637208278641,103.0706,25.1942,7.6244
1637208278657,104.2211,25.956,8.0326
1637208278671,105.1342,25.7746,5.5096
1637208278687,104.2758,25.7746,6.0105
1637208278703,102.9792,25.6839,7.0865
1637208278717,103.6184,25.0853,7.7172
1637208278733,104.0202,24.2691,7.6801
1637208278749,103.5636,24.777,7.7543
1637208278763,103.2897,24.0333,7.7728
1637208278779,104.5315,24.2691,6.7525
1637208278795,103.5636,24.9765,5.1386
1637208278809,104.842,25.43,6.7896
1637208278825,105.2437,25.1579,7.4389
1637208278841,104.842,24.2872,7.5317
1637208278855,104.6776,24.5412,5.7693
1637208278871,105.0063,24.2147,6.6783
1637208278887,104.7507,23.8156,7.8656
1637208278903,104.6411,22.7818,6.8824
1637208278917,104.7872,22.4553,6.3815
1637208278933,103.3445,22.9087,6.9381
1637208278949,104.8602,23.598,7.5688
1637208278963,104.2576,23.4347,8.181
1637208278979,104.0567,24.124,7.5317
1637208278995,104.2576,23.9608,6.6041
1637208279009,104.2393,24.5956,6.6598
1637208279025,104.5498,24.2691,9.0343
1637208279041,103.5271,22.6911,9.1456
1637208279055,103.728,23.1264,8.6262
1637208279071,104.7872,24.7407,7.0865
1637208279087,104.4219,23.5073,6.2146
1637208279101,105.0063,23.4347,7.4018
1637208279117,105.3716,22.5822,6.8453
1637208279133,105.0063,22.7636,6.0105
1637208279147,103.5636,23.3985,5.6209
1637208279163,102.9975,24.251,6.7896
1637208279179,102.9792,24.1966,8.7375
1637208279193,104.495,23.7068,7.9955
1637208279209,105.8464,23.5073,7.5317
1637208279225,105.5177,22.2376,6.3073
1637208279239,105.2985,23.2715,5.992
1637208279255,104.4219,24.251,6.8824
1637208279271,104.6046,23.2352,6.0105
1637208279287,105.0063,22.7999,5.2499
1637208279301,105.4081,22.7999,7.2349
1637208279317,103.7463,23.1445,6.4372
1637208279333,103.7463,23.4347,7.7914
1637208279347,104.1298,23.1445,6.9752
1637208279363,105.1889,22.2195,5.6766
1637208279379,104.075,22.3646,5.658
1637208279393,103.8193,22.2558,7.1607
1637208279409,104.2758,21.6935,7.0865
1637208279425,103.3628,23.3441,6.4743
1637208279439,102.3218,24.1421,8.9601
1637208279455,103.7645,23.1627,8.6447
1637208279471,104.2211,22.7273,8.2737
1637208279485,104.0384,22.0925,8.1624
1637208279501,104.8968,22.7999,7.3091
1637208279517,104.7507,23.725,7.1236
1637208279531,105.1159,23.6705,7.1421
1637208279547,104.2576,22.8725,6.734
1637208279563,103.5088,22.9269,7.4575
1637208279577,104.2211,23.5436,7.7914
1637208279593,105.1889,23.2715,6.4928
1637208279609,104.0567,23.2534,8.1624
1637208279623,103.9471,23.6161,6.7896
1637208279639,103.801,23.4892,6.9937
1637208279655,104.5863,23.1445,7.2349
1637208279671,105.4264,23.2352,7.8656
1637208279685,105.4811,22.8906,7.1421
1637208279701,104.1845,22.945,6.7711
1637208279717,104.7872,22.292,6.8453
1637208279731,104.8602,21.5121,6.5114
1637208279747,104.4585,22.0562,6.196
1637208279763,105.1524,23.2534,6.2517
1637208279777,103.9471,25.0128,6.3815
1637208279793,103.1071,23.7612,5.5282
1637208279809,104.4402,23.2352,5.6951
1637208279823,105.2072,23.997,7.8842
1637208279839,104.9515,23.6161,5.9363
1637208279855,104.6046,22.0381,6.4372
1637208279869,104.8602,22.8543,7.0494
1637208279885,102.9792,23.3985,5.9549
1637208279901,103.8741,23.0901,7.1421
1637208279915,104.2393,24.65,8.4221
1637208279931,104.6776,25.3393,8.4778
1637208279947,103.034,24.523,7.8842
1637208279961,104.568,23.598,8.3108
1637208279977,105.6638,23.725,7.1421
1637208279993,104.915,23.1264,5.4725
1637208280007,104.7324,23.8701,6.567
1637208280023,104.8237,23.1083,6.5299
1637208280039,104.7872,23.072,5.8806
1637208280055,103.7097,22.5822,6.1218
1637208280069,103.8193,22.9631,6.1404
1637208280085,102.2488,23.598,6.7711
1637208280101,103.2714,23.9063,7.0865
1637208280115,103.7463,23.5617,7.4018
1637208280131,105.2255,23.0538,8.1624
1637208280147,104.8237,23.6705,6.6412
1637208280161,104.4585,24.7951,6.9752
1637208280177,104.4767,24.5593,7.5688
1637208280193,104.915,23.9245,8.3479
1637208280207,104.0019,24.904,6.7711
1637208280223,104.0567,24.0696,8.1624
1637208280239,104.568,24.0696,6.6041
1637208280253,104.8054,21.5665,6.196
1637208280269,102.8879,21.6209,5.8621
1637208280285,104.1298,22.4916,5.1943
1637208280299,105.1707,22.6185,5.5653
1637208280315,104.842,22.1106,6.7154
1637208280331,105.6272,23.1264,6.7525
1637208280345,104.3672,23.0901,7.105
1637208280361,104.0384,23.9426,7.5688
1637208280377,102.8514,23.1083,7.643
1637208280391,102.5592,22.9269,7.476
1637208280407,103.7463,22.7636,8.0326
1637208280423,103.0706,22.9087,6.7896
1637208280439,103.5454,22.7636,8.6633
1637208280453,104.4585,22.7636,9.0529
1637208280469,103.7097,23.6524,9.2013
1637208280485,103.6732,23.997,8.9416
1637208280499,102.5592,23.7794,8.2552
1637208280515,101.5183,22.945,8.385
1637208280531,102.8879,23.6343,6.9752
1637208280545,102.8514,25.0491,7.6244
1637208280561,102.8514,25.4844,7.5688
1637208280577,103.9471,23.1627,4.9902
1637208280591,104.9333,22.9631,4.7305
1637208280607,104.3306,22.0925,3.6545
1637208280623,104.5498,21.9655,5.3798
1637208280637,104.9881,24.1966,4.6748
1637208280653,105.0246,24.3235,3.3392
1637208280669,104.842,24.1421,4.7305
1637208280683,104.7507,24.1603,4.9531
1637208280699,104.5863,22.6729,5.1757
1637208280715,105.5724,23.7975,6.7711
1637208280729,106.6316,22.9269,6.0291
1637208280745,106.2299,22.3464,5.0644
1637208280761,105.9377,23.8156,6.2517
1637208280775,105.0794,25.5388,7.0123
1637208280791,104.7872,24.523,6.1589
1637208280807,105.1707,23.0538,5.3056
1637208280823,105.5177,23.7794,6.2517
1637208280837,105.3716,24.6682,6.8638
1637208280853,104.0202,23.7975,6.901
1637208280869,103.9837,23.5254,7.1607
1637208280883,105.3716,24.2328,8.7375
1637208280899,105.1889,24.8133,7.3647
1637208280915,106.449,25.2123,9.4053
1637208280929,105.1342,24.4505,7.9398
1637208280945,103.8741,23.7975,8.3665
1637208280961,102.1027,22.945,7.5502
1637208280975,103.9471,23.3803,8.2552
1637208280991,105.7733,24.0333,7.4018
1637208281007,106.2847,24.3054,8.2366
1637208281021,105.7185,24.3598,10.2958
1637208281037,104.915,24.4686,10.1103
1637208281053,104.9515,24.7951,9.8506
1637208281067,103.9106,23.9608,9.1271
1637208281083,103.7097,23.7612,9.2569
1637208281099,103.0158,24.5412,10.4442
1637208281113,102.7601,24.8314,10.4071
1637208281129,103.3262,23.8701,9.9619
1637208281145,103.6915,23.3803,10.6297
1637208281159,104.1298,24.7044,11.9654
1637208281175,103.0523,24.7588,10.9265
1637208281191,102.6871,24.5412,11.9654
1637208281207,102.7236,25.5388,12.6703
1637208281221,103.1071,26.1736,11.3717
1637208281237,103.1253,24.65,11.7056
1637208281253,103.728,24.9946,11.5387
1637208281267,103.381,24.9946,10.5184
1637208281283,103.5819,26.0648,11.2975
1637208281299,103.5636,27.0624,11.3532
1637208281313,102.8879,27.008,11.7984
1637208281329,104.6594,27.4615,11.7984
1637208281345,103.801,26.5364,12.2251
1637208281359,104.5498,26.0104,10.4442
1637208281375,105.1707,24.5775,11.1677
1637208281391,104.6046,24.777,11.65
1637208281405,104.3489,25.2123,14.5996
1637208281421,102.7236,24.7588,14.4883
1637208281437,103.1436,24.777,12.8187
1637208281451,103.3262,25.829,11.5943
1637208281467,104.3306,26.1374,11.7613
1637208281483,104.7141,27.1894,13.5051
1637208281497,103.6915,27.8061,13.0599
1637208281513,103.7645,27.1894,11.7798
1637208281529,102.2122,26.3913,11.9097
1637208281543,101.1896,26.1192,12.2807
1637208281559,100.9704,25.9016,13.0784
1637208281575,101.3174,25.9923,14.1729
1637208281591,102.2488,26.4276,14.3955
1637208281605,102.7784,27.0987,14.4326
1637208281621,103.8741,27.3164,13.3938
1637208281637,104.8054,28.4772,13.5607
1637208281651,104.4402,27.0443,14.4697
1637208281667,104.1663,27.7154,17.308
1637208281683,103.034,26.6634,15.6941
1637208281697,102.8514,26.0829,14.4141
1637208281713,101.4087,26.3732,15.1561
1637208281729,101.6826,26.3913,13.9874
1637208281743,101.007,26.2099,15.49
1637208281759,102.0662,26.0104,15.1376
1637208281775,102.7418,26.3913,16.937
1637208281789,103.381,26.355,16.0095
1637208281805,103.4541,26.7722,16.0095
1637208281821,103.6184,26.3187,16.028
1637208281835,103.6549,24.65,16.9927
1637208281851,103.7097,25.176,16.9927
1637208281867,102.194,25.6295,17.475
1637208281881,101.5913,26.3187,18.1243
1637208281897,102.1757,27.0624,17.0483
1637208281913,101.1896,28.1144,17.3266
1637208281927,101.3357,28.3865,18.5324
1637208281943,101.3905,28.4228,19.0518
1637208281959,101.774,28.0963,19.4228
1637208281975,101.5913,28.0237,18.4211
1637208281989,101.4635,28.9125,19.7382
1637208282005,101.7009,28.5316,19.1075
1637208282021,101.3539,28.0782,19.1075
1637208282035,103.1436,29.0395,19.9608
1637208282051,103.0158,28.4409,19.6454
1637208282067,102.5775,26.3187,19.664
1637208282081,102.8879,26.881,19.9237
1637208282097,102.4679,27.5884,16.937
1637208282113,102.1575,28.7311,16.6958
1637208282127,102.0114,29.3478,18.8107
1637208282143,102.541,30.1822,19.5712
1637208282159,102.9245,29.2753,19.0889
1637208282173,102.9792,29.7469,19.2188
1637208282189,101.5548,30.7082,17.9202
1637208282205,101.5183,29.4748,18.6437
1637208282219,102.4679,30.3817,20.2205
1637208282235,101.6461,30.6357,20.4617
1637208282251,100.3495,29.892,20.2576
1637208282265,101.3174,29.5836,18.013
1637208282281,100.8974,29.6925,17.308
1637208282297,101.0252,29.9645,18.8849
1637208282311,100.9522,30.0734,19.4414
1637208282327,101.2261,29.2934,20.1649
1637208282343,101.7009,28.84,20.3875
1637208282359,102.5592,28.586,18.8663
1637208282373,102.0844,29.4023,19.5898
1637208282389,101.8835,29.2753,20.9997
1637208282405,101.8835,29.3116,22.8919
1637208282419,101.3722,29.5292,21.7046
1637208282435,101.2991,28.2233,21.2594
1637208282451,101.1348,28.9307,19.5156
1637208282465,100.4774,28.9488,19.9794
1637208282481,99.6556,27.4977,21.2037
1637208282497,100.1669,28.1326,21.3707
1637208282511,101.7557,28.3321,19.9794
1637208282527,101.4635,28.3865,20.0907
1637208282543,101.5548,28.84,19.5712
1637208282557,102.1209,30.0371,20.3504
1637208282573,103.4175,30.019,21.3892
1637208282589,103.3993,30.6901,20.5359
1637208282603,101.9383,29.2753,20.2947
1637208282619,101.1531,27.5703,19.9794
1637208282635,101.7192,28.4591,21.5376
1637208282649,101.4635,28.8762,21.0924
1637208282665,101.8105,30.4543,20.406
1637208282681,101.6279,29.4204,20.7771
1637208282695,101.5913,28.314,19.7753
1637208282711,102.7236,26.8629,18.9591
1637208282727,103.0523,27.0987,18.5324
1637208282743,102.0662,28.2414,19.3672
1637208282757,101.1531,28.9851,19.5156
1637208282773,102.1209,28.7674,21.3521
1637208282789,101.4818,28.6223,19.3301
1637208282803,100.4591,29.2209,19.5527
1637208282819,102.2488,28.8037,20.9997
1637208282835,102.961,29.6199,20.0536
1637208282849,101.8105,29.5836,18.9591
1637208282865,100.3495,28.2414,19.9423
1637208282881,101.0252,28.3502,19.9423
1637208282895,101.0617,28.7856,21.1481
1637208282911,101.7009,27.9149,21.9829
1637208282927,101.6826,29.0758,21.8159
1637208282941,102.3401,28.0782,19.664
1637208282957,101.8835,27.3526,19.7197
1637208282973,101.1348,27.8242,20.7029
1637208282987,101.2444,28.9669,21.853
1637208283003,102.2853,28.713,22.0942
1637208283019,103.0888,28.4228,20.9069
1637208283033,103.034,28.4591,21.1852
1637208283049,102.8514,28.586,21.5562
1637208283065,101.2444,28.2051,21.8159
1637208283079,101.7557,28.7856,21.4449
1637208283095,101.7922,29.0395,20.7029
1637208283111,102.6323,28.0963,19.4414
1637208283127,103.2532,27.5884,18.5138
1637208283141,102.5957,27.9875,17.5863
1637208283157,102.4497,28.3684,20.4617
1637208283173,102.4497,27.6973,21.5562
1637208283187,102.6871,28.1144,20.4988
1637208283203,101.7374,28.1689,19.3857
1637208283219,100.8791,27.7698,21.2037
1637208283233,100.9704,28.2051,21.7974
1637208283249,101.5731,28.8581,21.2965
1637208283265,101.3539,29.6199,20.4246
1637208283279,101.774,28.4591,19.0333
1637208283295,102.1209,26.0648,20.3689
1637208283311,102.9975,27.2438,21.7232
1637208283325,102.0479,27.407,22.0014
1637208283341,102.5592,27.8786,22.2055
1637208283357,102.7236,27.5159,22.6136
1637208283371,101.6279,28.4409,22.02
1637208283387,101.3539,27.3345,21.5747
1637208283403,101.1713,26.1555,21.7974
1637208283417,101.3905,25.9197,21.9643
1637208283433,101.2078,26.6452,20.2762
1637208283449,100.1669,26.7541,19.5156
1637208283463,101.1896,26.1736,20.573
1637208283479,101.7557,27.534,21.7974
1637208283495,101.1713,28.5679,22.4652
1637208283511,101.1348,28.3684,22.391
1637208283525,101.007,28.0056,22.8362
1637208283541,102.1027,27.9875,20.8142
1637208283557,102.2122,28.187,21.0924
1637208283571,102.2122,28.3321,23.0403
1637208283587,101.6096,28.314,20.2576
1637208283603,101.774,26.6634,21.3707
1637208283617,100.9522,27.6973,21.7046
1637208283633,101.5731,28.6949,22.2982
1637208283649,101.7922,28.9125,24.2646
1637208283663,102.8514,29.7832,23.2072
1637208283679,102.7601,28.06,20.0536
1637208283695,101.427,26.7903,19.9052
1637208283709,102.7418,28.2051,20.7585
1637208283725,102.4131,27.4615,21.4263
1637208283741,102.1209,28.3502,21.3336
1637208283755,103.1619,28.1326,20.9626
1637208283771,103.034,28.0419,20.6286
1637208283787,100.9704,27.3526,20.3318
1637208283801,101.2261,27.3345,21.0182
1637208283817,100.9887,27.1712,21.9829
1637208283833,101.4087,27.6428,22.5208
1637208283847,103.1619,27.1894,21.7046
1637208283863,102.8879,27.1531,22.5208
1637208283879,102.0662,27.2801,22.8362
1637208283895,101.4818,27.4252,22.4466
1637208283909,101.4818,26.7903,22.5579
1637208283925,102.2488,26.2643,20.2576
1637208283941,102.0114,26.7359,20.1649
1637208283955,101.8653,26.8992,21.2223
1637208283971,101.2991,27.7517,21.315
1637208283987,102.2305,27.6066,21.5005
1637208284001,102.4314,27.0443,22.0385
1637208284017,101.5183,27.6973,22.5579
1637208284033,101.5,27.6247,21.111
1637208284047,101.6644,27.4977,20.6658
1637208284063,101.0617,26.3913,19.2188
1637208284079,101.08,27.3708,19.7939
1637208284093,102.1392,27.7698,22.2611
1637208284109,102.4314,26.7178,22.5208
1637208284125,102.2488,25.6839,21.315
1637208284139,101.8105,26.1011,22.7806
1637208284155,102.4497,27.3164,21.9272
1637208284171,102.9427,27.2075,20.9997
1637208284185,101.7192,26.3369,21.2408
1637208284201,101.08,26.8085,21.0739
1637208284217,101.5913,25.9378,20.3689
1637208284231,100.6052,26.7359,21.649
1637208284247,102.4497,26.1011,21.0368
1637208284263,102.6505,25.6113,21.5005
1637208284279,102.7418,27.0443,23.5597
1637208284293,102.194,27.4615,21.4634
1637208284309,102.6323,26.9354,20.5359
1637208284325,101.8835,26.9536,21.2037
1637208284339,101.1348,27.1168,19.7753
1637208284355,101.007,26.355,20.8142
1637208284371,100.6052,26.3913,21.649
1637208284385,100.733,26.1192,20.406
1637208284401,100.6965,25.9197,19.6454
1637208284417,102.0479,26.8266,21.4078
1637208284431,103.1984,28.84,22.8919
1637208284447,102.3218,27.3164,20.8142
1637208284463,102.3949,26.3006,20.2205
1637208284477,101.9566,25.9378,20.3689
1637208284493,102.3583,26.355,22.1498
1637208284509,101.3357,26.2099,20.8327
1637208284523,100.3313,25.4662,20.74
1637208284539,100.7696,26.6634,22.0385
1637208284555,101.2444,27.2982,21.6861
1637208284569,101.427,26.1736,20.6472
1637208284585,101.4635,25.7383,20.3875
1637208284601,102.3036,26.9536,21.8716
1637208284615,101.0617,26.3732,21.1295
1637208284631,100.1486,25.7927,20.3318
1637208284647,102.9427,25.8653,20.5544
1637208284663,103.3993,26.1736,20.3689
1637208284677,103.6732,26.8266,20.6101
1637208284693,102.3949,25.6295,20.1278
1637208284709,102.5044,26.1192,21.649
1637208284723,102.0114,26.7903,22.1313
1637208284739,102.4679,27.3164,21.9829
1637208284755,102.0479,26.5908,20.9811
1637208284769,102.5227,26.6452,21.9643
1637208284785,100.9339,27.1531,21.7974
1637208284801,101.2809,26.1736,21.7417
1637208284815,102.194,26.2825,22.6693
1637208284831,101.3905,26.1736,20.9255
1637208284847,102.5592,26.5545,21.853
1637208284861,103.1801,28.2414,22.391
1637208284877,102.3949,27.9149,20.3875
1637208284893,100.9339,24.9402,20.6472
1637208284907,100.8609,25.7383,21.0553
1637208284923,101.2809,25.8109,21.0739
1637208284939,102.267,25.9197,22.6136
1637208284953,100.8061,25.8109,21.1295
1637208284969,101.5913,26.5183,20.9997
1637208284985,102.0844,26.5727,22.2797
1637208284999,102.2305,26.8992,20.9626
1637208285015,103.2714,27.1712,19.7382
1637208285031,102.7053,27.0624,19.0889
1637208285047,101.9931,26.9173,21.4449
1637208285061,102.8879,26.1011,21.1852
1637208285077,102.3766,25.303,20.6658
1637208285093,101.1165,25.43,19.664
1637208285107,101.4452,26.8992,20.0907
1637208285123,101.8653,26.1192,19.7568
1637208285139,102.267,26.4638,19.6826
1637208285153,102.0296,27.008,20.5544
1637208285169,102.5957,27.8424,19.5898
1637208285185,101.9748,27.0624,17.4379
1637208285199,101.427,26.5364,18.5695
1637208285215,101.6096,27.5703,19.9979
1637208285231,101.5366,26.7903,20.4431
1637208285245,102.3036,26.5908,20.3133
1637208285261,102.3766,26.3913,20.5544
1637208285277,101.774,26.355,20.6658
1637208285291,101.5731,26.7178,20.0721
1637208285307,101.7922,26.9899,19.2188
1637208285323,102.1575,26.4638,20.6286
1637208285337,102.5227,26.4638,21.4449
1637208285353,102.961,27.0987,20.202
1637208285369,101.6826,26.2825,20.0165
1637208285383,102.267,27.1168,21.5747
1637208285399,102.5227,26.3369,20.2391
1637208285415,103.034,27.3526,18.9962
1637208285431,102.6871,27.2257,19.1446
1637208285445,102.7601,28.2958,19.1817
1637208285461,103.728,28.2051,19.8495
1637208285477,103.2532,26.5001,21.6118
1637208285491,101.5183,26.6634,20.7956
1637208285507,101.4635,27.008,21.3707
1637208285523,100.7513,27.4796,20.3318
1637208285537,101.4635,26.6815,20.0721
1637208285553,102.3583,26.8448,18.384
1637208285569,101.5366,27.9693,18.755
1637208285583,102.7784,27.3164,18.6808
1637208285599,102.9427,26.609,18.8292
1637208285615,101.9931,25.2123,18.2912
1637208285629,101.5548,26.3006,18.3283
1637208285645,101.4818,25.7746,19.0518
1637208285661,101.6461,26.609,18.4396
1637208285675,101.5548,27.0987,19.1631
1637208285691,101.1713,28.0237,19.6269
1637208285707,101.007,28.187,20.4246
1637208285721,100.9887,28.2777,20.9069
1637208285737,102.1575,28.6767,19.0518
1637208285753,102.8879,27.8786,20.3133
1637208285767,103.4358,26.5364,19.7382
1637208285783,102.5957,29.2934,20.1278
1637208285799,103.6184,28.6949,19.6083
1637208285815,104.7872,28.0419,19.293
1637208285829,104.1663,27.5884,18.922
1637208285845,102.7784,25.2849,18.5138
1637208285861,102.5227,24.2872,19.3115
1637208285875,102.1392,25.2123,19.0147
1637208285891,101.4635,26.9354,20.2205
1637208285907,102.0662,27.5159,20.1278
1637208285921,101.0983,27.4615,20.0165
1637208285937,100.6965,26.8992,18.9776
1637208285953,101.6644,26.2825,17.9202
1637208285967,102.2488,26.8266,19.497
1637208285983,102.3401,27.135,20.74
1637208285999,101.5366,27.6428,19.4043
1637208286013,102.4679,27.9875,19.1446
1637208286029,102.4497,27.1712,18.9962
1637208286045,101.8105,27.2257,18.6994
1637208286059,101.8653,27.661,18.7179
1637208286075,101.2078,26.1918,20.406
1637208286091,102.3949,25.9197,19.6454
1637208286105,102.4314,26.482,18.5509
1637208286121,102.9062,26.4276,20.1278
1637208286137,102.194,26.2462,20.2947
1637208286151,102.194,26.9536,19.293
1637208286167,103.0158,27.4252,19.1446
1637208286183,102.6505,27.1894,18.9405
1637208286199,102.2853,27.7517,18.3654
1637208286213,101.5366,27.1712,17.2524
1637208286229,101.8653,25.7383,17.1225
1637208286245,101.8105,26.0285,20.0165
1637208286259,101.5731,27.8424,20.2205
1637208286275,101.5913,28.1326,20.8513
1637208286291,103.5819,27.8424,20.0907
1637208286305,104.1298,28.2958,20.7585
1637208286321,102.7601,26.7359,20.4802
1637208286337,102.5957,25.6476,20.9069
1637208286351,102.2488,27.0987,19.8681
1637208286367,101.7192,27.2075,18.013
1637208286383,102.6323,25.9741,18.2356
1637208286397,103.034,25.8653,17.9944
1637208286413,101.6096,25.4844,18.217
1637208286429,103.1071,25.8471,19.497
1637208286443,101.847,26.9536,17.475
1637208286459,101.3357,26.9173,17.475
1637208286475,102.4131,27.1531,18.3283
1637208286489,102.3766,25.2667,18.5509
1637208286505,101.847,25.8653,18.7179
1637208286521,102.0114,26.7541,19.9237
1637208286535,102.7784,26.4638,19.4785
1637208286551,102.6505,27.2438,18.8478
1637208286567,102.5775,26.8992,18.9776
1637208286583,102.7784,27.0443,19.4414
1637208286597,101.9201,25.8834,19.5898
1637208286613,101.6096,25.5751,18.8478
1637208286629,102.2853,25.6295,18.1428
1637208286643,102.3583,24.7226,19.0147
1637208286659,101.9383,24.5775,18.1985
1637208286675,103.0523,25.829,18.9034
1637208286689,104.2028,26.355,19.2373
1637208286705,103.9654,26.4276,20.0721
1637208286721,102.6688,27.3345,19.497
1637208286735,103.2349,28.1507,18.8292
1637208286751,103.0158,27.8242,18.3098
1637208286767,102.8514,27.7154,20.9626
1637208286781,101.9201,27.3708,21.7603
1637208286797,102.3218,27.3345,20.7585
1637208286813,102.5957,26.5364,18.755
1637208286827,102.0114,25.8834,18.6808
1637208286843,101.8287,26.7359,19.3857
1637208286859,102.0114,26.3732,19.8495
1637208286873,102.9792,27.0443,20.4246
1637208286889,103.7097,27.1894,20.2391
1637208286905,102.961,27.2075,20.7585
1637208286919,104.148,27.407,22.0014
1637208286935,103.9837,26.355,21.5191
1637208286951,102.541,26.4457,21.6118
1637208286967,101.7374,26.5183,21.1295
1637208286981,102.0479,27.008,21.6675
1637208286997,101.9383,26.8629,20.2947
1637208287013,102.0662,26.3732,20.7771
1637208287027,101.6644,26.4457,20.0907
1637208287043,101.5366,26.5908,19.2188
1637208287059,102.4497,25.9741,18.9962
1637208287073,102.8149,26.5908,21.4449
1637208287089,103.1619,25.8834,21.6675
1637208287105,102.5227,26.3187,20.202
1637208287119,101.9201,26.1011,20.2762
1637208287135,102.8514,25.3393,19.3857
1637208287151,102.6505,26.1736,21.2408
1637208287165,103.2167,27.1894,21.1852
1637208287181,102.8879,26.7903,19.9237
1637208287197,103.0706,26.5727,19.2559
1637208287211,103.5636,26.8992,18.7921
1637208287227,103.2167,26.7541,21.6118
1637208287243,102.7966,27.6791,22.9846
1637208287257,101.8653,26.7722,20.9997
1637208287273,101.3905,26.4276,19.126
1637208287289,101.3174,26.4276,19.2744
1637208287303,102.0844,26.1374,21.5747
1637208287319,102.8697,27.1168,20.8513
1637208287335,102.6323,26.0648,21.4263
1637208287351,100.8974,26.1555,20.7214
1637208287365,101.8287,26.8266,21.1852
1637208287381,102.5227,26.3187,20.6472
1637208287397,102.9062,26.1736,19.2188
1637208287411,102.3401,26.3187,19.9423
1637208287427,100.8609,26.4094,20.0721
1637208287443,100.9339,27.1168,20.1649
1637208287457,102.194,26.8085,21.2408
1637208287473,101.8835,27.1531,22.4095
1637208287489,102.1027,27.7698,20.2576
1637208287503,102.4862,28.2233,20.7956
1637208287519,102.9245,27.2619,20.1463
1637208287535,104.1298,26.5183,18.8107
1637208287549,102.7966,26.9536,19.1075
1637208287565,101.1165,26.6271,18.5138
1637208287581,102.9427,28.2777,18.9034
1637208287595,102.9975,27.9331,19.1075
1637208287611,103.381,26.8085,18.8663
1637208287627,101.6826,26.5727,19.5156
1637208287641,100.9522,25.702,19.7753
1637208287657,102.1027,25.6476,20.5544
1637208287673,102.5044,25.6476,20.406
1637208287687,102.0479,26.1374,19.1446
1637208287703,102.0114,26.1555,19.293
1637208287719,101.9931,27.1531,20.1278
1637208287735,102.0844,28.0963,19.8866
1637208287749,102.6323,27.5703,20.5544
1637208287765,102.267,27.6973,19.8124
1637208287781,102.1209,26.3369,20.6101
1637208287795,102.194,25.9016,20.7585
1637208287811,101.6096,26.6815,18.4953
1637208287827,101.5366,25.8653,19.5527
1637208287841,101.0617,26.3187,20.9997
1637208287857,101.4635,26.7903,19.2188
1637208287873,101.4452,26.5183,18.7179
1637208287887,102.4314,26.2462,20.2205
1637208287903,102.9245,27.8968,18.6437
1637208287919,102.1392,28.6223,17.5863
1637208287933,102.614,27.3708,19.6269
1637208287949,102.5044,27.2438,20.7771
1637208287965,102.4314,25.829,20.8698
1637208287979,102.5227,25.7746,22.7806
1637208287995,102.3766,26.5001,20.7771
1637208288011,101.7192,25.5569,19.7011
1637208288025,101.1165,25.6113,20.3133
1637208288041,101.1713,25.9741,20.1834
1637208288057,101.2261,25.8834,20.0536
1637208288071,101.3357,27.8786,19.0333
1637208288087,101.6279,27.3526,18.8107
1637208288103,101.5366,27.7698,18.1985
1637208288119,102.9245,27.2257,18.0501
1637208288133,102.3218,26.2099,19.2002
1637208288149,102.3036,25.9016,19.1075
1637208288165,101.5366,26.609,17.6976
1637208288179,102.0296,26.6634,17.9388
1637208288195,101.9201,26.1192,17.8275
1637208288211,102.3218,26.3732,18.6251
1637208288225,102.7236,27.6791,21.4263
1637208288241,101.9383,27.2257,20.6658
1637208288257,102.1209,27.2075,19.4414
1637208288271,102.5592,27.6247,19.2002
1637208288287,103.0158,29.0395,19.831
1637208288303,102.7418,27.2619,19.7753
1637208288317,102.5044,26.3187,19.6269
1637208288333,103.2167,25.5388,18.8478
1637208288349,103.381,26.6452,17.8831
1637208288363,103.6915,28.4047,18.0315
1637208288379,103.0158,28.84,19.1075
1637208288395,102.541,27.6066,20.2576
1637208288409,103.4541,27.6973,20.0721
1637208288425,102.2122,27.8424,19.4599
1637208288441,100.5687,27.4796,19.8866
1637208288455,102.0296,27.4433,19.2744
1637208288471,102.6323,26.881,19.2559
1637208288487,102.2122,27.8968,18.9962
1637208288503,101.9201,27.534,18.3469
1637208288517,103.1436,27.008,18.8849
1637208288533,102.2488,26.6815,19.4785
1637208288549,102.3218,27.8605,18.1799
1637208288563,102.8149,27.8242,17.0298
1637208288579,102.6505,27.0987,16.937
1637208288595,101.7192,26.5001,16.7515
1637208288609,102.3036,27.2619,18.2727
1637208288625,101.4452,27.8786,18.9034
1637208288641,101.6644,27.1712,18.1243
1637208288655,102.5227,27.6791,19.6826
1637208288671,101.0983,27.8061,18.8478
1637208288687,101.0435,26.7359,16.1022
1637208288701,102.2853,27.3526,18.8663
1637208288717,102.8149,26.6452,19.4785
1637208288733,102.4497,26.9717,19.6454
1637208288747,101.9201,27.7517,19.7939
1637208288763,102.6323,26.2099,18.8849
1637208288779,102.3401,25.43,19.4228
1637208288793,102.3949,25.9378,18.6622
1637208288809,102.9975,26.4094,18.2727
1637208288825,101.8287,27.2257,17.9388
1637208288839,102.7236,27.0624,18.6437
1637208288855,101.9748,27.3889,18.1428
1637208288871,101.9201,28.2777,17.7533
1637208288887,102.8879,27.6973,16.8072
1637208288901,102.4314,26.6996,17.2709
1637208288917,101.7374,26.881,18.755
1637208288933,102.5957,28.4228,18.7921
1637208288947,102.541,27.7698,18.5695
1637208288963,101.9383,26.1918,18.4953
1637208288979,102.1027,26.6996,18.4767
1637208288993,102.0662,27.3889,20.0721
1637208289009,102.1209,27.6428,19.7753
1637208289025,101.5,28.9125,19.6083
1637208289039,101.774,27.4796,20.2762
1637208289055,102.4679,27.6066,17.8831
1637208289071,100.9704,27.0987,17.2524
1637208289085,101.5366,27.0806,18.1057
1637208289101,103.0523,26.5364,18.9962
1637208289117,103.4175,26.5001,18.013
1637208289131,103.0706,26.2643,18.7736
1637208289147,103.0158,26.2281,18.7736
1637208289163,101.6644,28.2233,18.755
1637208289177,100.9156,28.0963,18.6808
1637208289193,101.3722,28.4953,18.384
1637208289209,102.1392,27.534,19.8866
1637208289223,102.7236,27.2257,19.4414
1637208289239,102.5775,26.6996,20.1834
1637208289255,101.9383,26.6996,19.4228
1637208289271,101.847,26.0104,19.0889
1637208289285,102.8332,26.3369,18.3469
1637208289301,103.1801,27.4433,18.0872
1637208289317,102.9062,27.5521,18.1985
1637208289331,101.9383,27.7698,19.0333
1637208289347,101.2809,26.482,19.5712
1637208289363,102.0844,25.9923,19.7011
1637208289377,103.308,25.4118,20.6101
1637208289393,103.0523,25.5932,19.2744
1637208289409,102.7784,27.008,19.6454
1637208289423,103.0158,27.0261,21.0924
1637208289439,102.4497,28.8581,19.1075
1637208289455,101.9201,27.3526,19.7382
1637208289469,101.427,26.9354,18.8849
1637208289485,102.4497,26.9173,19.6826
1637208289501,102.194,26.6996,20.7214
1637208289515,101.7922,27.135,20.7956
1637208289531,103.0158,27.008,20.0907
1637208289547,102.1027,26.7722,18.755
1637208289561,101.8287,27.5884,19.1631
1637208289577,101.5,28.1507,20.1649
1637208289593,102.3401,29.3116,19.0889
1637208289607,103.2532,27.5884,19.4414
1637208289623,103.2714,26.0285,18.7179
1637208289639,102.3949,25.829,18.8292
1637208289655,101.7009,25.8109,18.217
1637208289669,101.0252,26.2825,20.0536
1637208289685,101.9201,25.8109,20.2576
1637208289701,101.8105,26.1555,19.4228
1637208289715,102.1027,27.8061,17.475
1637208289731,103.0706,27.8605,18.2912
1637208289747,101.847,25.8471,20.2205
1637208289761,101.427,24.4868,20.74
1637208289777,102.7966,25.4662,20.74
1637208289793,102.8879,25.9923,20.3133
1637208289807,101.9018,26.5908,20.3133
1637208289823,100.4774,26.7178,19.2559
1637208289839,101.2261,26.1374,20.3504
1637208289853,100.5869,25.8109,20.1092
1637208289869,102.3218,26.7178,20.4988
1637208289885,102.267,27.6066,20.9626
1637208289899,102.4679,28.2233,19.4228
1637208289915,102.8514,26.5001,19.8495
1637208289931,102.4131,27.2982,20.1278
1637208289945,101.847,26.881,19.6826
1637208289961,101.1531,26.5727,19.5341
1637208289977,101.3174,26.5727,21.6304
1637208289991,101.8287,26.1736,22.3724
1637208290007,103.2349,26.2643,21.5376
1637208290023,103.3262,26.7722,20.8327
1637208290039,101.4087,28.187,19.1631
1637208290053,102.3036,27.5703,18.6066
1637208290069,102.2122,25.9016,20.3133
1637208290085,102.3949,25.6113,20.9255
1637208290099,102.9245,26.5364,20.944
1637208290115,101.9201,26.9354,18.5695
1637208290131,101.6826,26.5001,18.6437
1637208290145,101.8105,27.2619,20.74
1637208290161,101.9383,26.5183,20.6843
1637208290177,100.8974,26.3369,19.2559
1637208290191,101.3722,26.482,20.5915
1637208290207,101.3539,28.2595,20.8327
1637208290223,101.7922,28.4409,22.2055
1637208290237,101.9383,28.5316,22.595
1637208290253,102.9245,27.8424,20.2576
1637208290269,103.0888,26.609,18.4211
1637208290283,103.2349,26.8266,19.8866
1637208290299,102.1209,26.881,19.8681
1637208290315,100.7148,27.0443,19.2002
1637208290329,101.427,26.3913,19.664
1637208290345,102.4131,27.2075,20.202
1637208290361,101.8835,25.6113,18.6251
1637208290375,101.427,25.6113,18.9405
1637208290391,101.8105,25.8471,20.0165
1637208290407,102.7601,26.3913,20.74
1637208290423,104.5498,27.534,21.482
1637208290437,103.9837,27.5884,21.3336
1637208290453,102.7418,27.6973,19.293
1637208290469,101.9018,28.4047,18.9034
1637208290483,101.9566,29.2209,20.3875
1637208290499,101.3357,27.6973,20.4617
1637208290515,102.1027,27.0624,20.2947
1637208290529,103.4906,27.0624,18.4767
1637208290545,102.7601,26.5727,19.3857
1637208290561,101.7557,25.9016,19.0704
1637208290575,101.847,26.8448,19.0704
1637208290591,102.0479,27.2438,18.588
1637208290607,102.0296,27.407,19.9794
1637208290621,102.2122,27.0806,18.922
1637208290637,102.2853,27.3708,18.588
1637208290653,103.3993,27.3708,19.4414
1637208290667,103.6184,26.482,20.202
1637208290683,102.1757,27.3889,18.8849
1637208290699,102.0296,27.2075,18.4396
1637208290713,101.6826,27.1712,19.6826
1637208290729,101.774,28.2595,19.497
1637208290745,102.4679,28.7856,19.5712
1637208290759,101.6096,28.0782,19.497
1637208290775,101.9018,27.1168,20.4988
1637208290791,102.8879,27.2801,19.0333
1637208290807,102.7053,27.9331,19.1446
1637208290821,102.4679,27.4796,20.3133
1637208290837,102.961,26.8085,20.1278
1637208290853,102.5592,27.8968,21.1295
1637208290867,103.3993,28.0056,21.2965
1637208290883,102.6688,27.6066,22.0756
1637208290899,101.0617,26.2825,19.2559
1637208290913,101.2991,26.482,18.0686
1637208290929,103.034,26.5727,19.4414
1637208290945,101.5731,27.4796,19.4414
1637208290959,102.194,27.5884,19.8495
1637208290975,102.0844,25.3937,19.4785
1637208290991,101.5913,26.1736,19.2559
1637208291005,102.0479,26.2825,18.6066
1637208291021,102.5044,26.4638,18.4211
1637208291037,103.1801,26.0648,19.8495
1637208291051,103.1436,27.2982,20.202
1637208291067,102.1575,27.2619,18.8663
1637208291083,102.3218,27.6428,19.8681
1637208291097,103.381,26.1192,18.3098
1637208291113,102.6323,26.4638,16.9556
1637208291129,101.2444,26.4094,17.8275
1637208291143,102.1027,26.3913,19.8124
1637208291159,102.3583,27.4796,21.4078
1637208291175,102.4862,28.2777,20.2576
1637208291191,102.4314,27.4252,18.6437
1637208291205,103.4541,27.1531,17.6048
1637208291221,103.1619,27.5521,18.384
1637208291237,101.427,25.7927,18.6251
1637208291251,101.5183,26.3369,18.4953
1637208291267,102.1757,26.3913,17.7347
1637208291283,102.3036,26.0285,18.1243
1637208291297,102.5957,26.6271,19.1446
1637208291313,102.7966,28.2595,18.922
1637208291329,103.3445,28.0963,18.8107
1637208291343,103.2167,27.7698,18.7365
1637208291359,101.774,26.1736,18.8292
1637208291375,101.6096,27.6066,18.8107
1637208291389,101.7374,26.609,19.9237
1637208291405,101.6644,26.4638,19.4043
1637208291421,101.2261,27.6791,18.2541
1637208291435,101.5731,28.7856,19.2002
1637208291451,101.6279,26.9717,20.7771
1637208291467,103.1984,26.3006,19.664
1637208291481,103.4723,27.8605,19.5341
1637208291497,103.3262,27.2075,18.4767
1637208291513,103.0888,27.4252,19.7939
1637208291527,103.4358,27.6791,20.3318
1637208291543,103.7645,27.135,19.2002
1637208291559,102.4497,27.1168,19.0147
1637208291575,102.5227,26.7903,18.7921
1637208291589,102.4497,26.3187,18.4211
1637208291605,102.4314,27.4796,19.2188
1637208291621,103.1619,27.135,20.1092
1637208291635,102.7784,26.5545,17.4008
1637208291651,101.5731,25.8109,17.5677
1637208291667,101.6279,26.5183,17.7162
1637208291681,102.3949,27.135,18.5695
1637208291697,102.4314,29.0395,18.2541
1637208291713,103.1619,27.3708,19.5712
1637208291727,103.3445,25.956,19.2744
1637208291743,103.9106,25.702,18.9405
1637208291759,103.1253,26.2643,19.126
1637208291773,102.194,28.4591,19.4599
1637208291789,102.1575,28.2233,19.5341
1637208291805,101.774,28.0963,19.2559
1637208291819,101.8287,27.7698,19.1817
1637208291835,102.8332,27.4252,17.7162
1637208291851,102.8514,27.2438,16.6402
1637208291865,103.6184,27.0443,16.4176
1637208291881,103.0706,27.4977,16.9741
1637208291897,102.9975,27.135,18.0872
1637208291911,102.5775,27.8786,20.202
1637208291927,102.3401,27.7517,18.6994
1637208291943,104.1298,27.2438,18.217
1637208291959,104.0932,26.4276,18.922
1637208291973,103.3445,26.4276,18.6251
1637208291989,103.1801,26.5183,17.5863
1637208292005,101.2991,27.5884,17.7347
1637208292019,102.541,28.5135,19.0518
1637208292035,103.4358,27.2801,19.4599
1637208292051,102.3949,26.7903,19.2188
1637208292065,101.2809,26.0285,19.5712
1637208292081,100.1304,25.9741,19.7011
1637208292097,100.4408,25.829,19.4414
1637208292111,101.7374,26.8992,19.3857
1637208292127,104.9881,28.6767,19.7011
1637208292143,104.0384,28.4047,19.1631
1637208292157,102.2305,26.9536,18.588
1637208292173,102.3401,26.482,18.5509
1637208292189,100.8426,26.2643,17.5677
1637208292203,102.1392,24.9584,19.0333
1637208292219,102.3583,25.7383,19.7568
1637208292235,101.427,26.355,19.0147
1637208292249,101.6096,26.4276,19.293
1637208292265,102.1209,26.5545,19.9052
1637208292281,102.3401,26.9354,19.6826
1637208292295,101.7192,26.8448,18.4211
1637208292311,103.3628,26.1918,20.406
1637208292327,102.0114,27.1531,18.4211
1637208292343,102.5775,26.7903,16.2135
1637208292357,102.3036,25.9378,18.588
1637208292373,101.3905,26.1555,19.6454
1637208292389,102.2488,26.482,18.3098
1637208292403,101.7009,27.5159,20.2205
1637208292419,102.1392,27.0261,20.035
1637208292435,103.1801,28.2414,19.3115
1637208292449,103.2349,28.1689,19.5712
1637208292465,102.4862,27.4433,18.755
1637208292481,101.9931,27.2257,17.7904
1637208292495,103.2167,26.8629,17.6048
1637208292511,102.8879,26.7178,17.4379
1637208292527,103.7645,26.355,17.7347
1637208292541,103.4906,26.9354,19.6083
1637208292557,102.2305,26.2099,19.2744
1637208292573,101.7009,26.2099,20.202
1637208292587,102.7053,26.8266,19.497
1637208292603,101.9748,27.1894,18.384
1637208292619,101.5183,26.609,17.0112
1637208292633,102.9792,27.135,18.1428
1637208292649,102.9792,27.9693,18.4582
1637208292665,103.308,27.8061,18.8478
1637208292679,103.6549,27.7517,19.0518
1637208292695,103.2167,27.9331,19.9979
1637208292711,101.7009,28.6405,18.6808
1637208292727,101.774,28.4228,18.5324
1637208292741,102.3766,28.4228,17.0483
1637208292757,102.8697,27.9512,17.7533
1637208292773,102.2305,27.8061,19.5341
1637208292787,102.4131,28.4591,19.1817
1637208292803,102.0479,28.4953,18.9776
1637208292819,102.8332,28.6223,19.2559
1637208292833,103.7097,27.7335,19.3672
1637208292849,103.2349,28.1144,18.384
1637208292865,102.3218,29.5474,18.3283
1637208292879,102.9245,28.6223,18.8663
1637208292895,102.3401,27.6247,18.7736
1637208292911,102.6688,27.3345,19.3301
1637208292925,103.2532,27.6791,19.8866
1637208292941,102.3583,26.7722,18.3098
1637208292957,101.7009,26.5908,17.3822
1637208292971,101.7009,27.2075,19.831
1637208292987,103.3445,26.7178,20.6286
1637208293003,102.7053,26.6815,16.9556
1637208293017,103.1801,26.7903,17.9573
1637208293033,103.1801,28.3684,19.7382
1637208293049,102.8149,28.2595,20.3689
1637208293063,101.2991,26.6996,19.7011
1637208293079,101.9018,26.4276,19.2744
1637208293095,102.6505,27.2801,19.2188
1637208293111,102.7053,26.9354,19.6269
1637208293125,101.9748,27.2257,18.1985
1637208293141,101.1713,26.5908,17.0483
1637208293157,101.7192,27.5884,18.6808
1637208293171,101.4087,28.0056,18.7179
1637208293187,103.034,28.6949,19.1075
1637208293203,102.4131,28.1689,18.9591
1637208293217,101.9018,28.7856,18.7921
1637208293233,102.6505,28.3684,19.9237
1637208293249,103.3262,27.0443,18.8292
1637208293263,103.2714,26.8266,18.7921
1637208293279,103.4906,28.1507,17.9202
1637208293295,103.801,27.6973,18.4953
1637208293309,102.7601,27.5884,19.6454
1637208293325,101.5183,27.4433,18.2727
1637208293341,101.4818,26.5545,18.7921
1637208293355,102.267,26.1192,17.3637
1637208293371,103.3445,26.881,16.566
1637208293387,104.4402,27.5159,19.3486
1637208293401,103.5454,27.4615,19.7197
1637208293417,103.1253,28.0056,18.8478
1637208293433,103.1619,28.4047,19.8124
1637208293447,103.5636,28.7674,20.0907
1637208293463,102.2305,27.4796,18.7736
1637208293479,101.6644,25.6295,19.7382
1637208293495,102.6871,26.6634,18.1985
1637208293509,101.7557,27.3889,18.8478
1637208293525,100.24,28.5679,19.5341
1637208293541,101.7557,27.6066,20.3875
1637208293555,102.8332,27.3345,19.4785
1637208293571,101.6644,28.0419,19.1075
1637208293587,101.3905,27.661,19.0147
1637208293601,101.5913,27.8968,18.1243
1637208293617,102.267,27.1894,20.0907
1637208293633,101.3357,27.4796,20.4246
1637208293647,101.2991,26.7178,19.1446
1637208293663,102.4497,26.2462,20.5173
1637208293679,102.541,27.2801,20.8142
1637208293693,102.7053,27.5521,17.9759
1637208293709,101.8287,26.5727,19.0704
1637208293725,101.5731,26.1374,19.293
1637208293739,101.7009,26.0285,19.5712
1637208293755,102.0296,26.9354,21.1852
1637208293771,101.8835,26.8448,21.8901
1637208293785,102.614,27.9331,18.8478
1637208293801,102.5957,28.2595,17.5306
1637208293817,101.2991,27.9149,18.384
1637208293831,101.2078,28.3684,20.1649
1637208293847,101.5731,27.8242,19.8866
1637208293863,101.7922,27.8061,18.5509
1637208293879,101.2809,27.5703,17.9573
1637208293893,101.2809,27.135,18.9405
1637208293909,101.7374,28.2595,19.7382
1637208293925,101.0435,27.7879,20.5173
1637208293939,101.6644,26.9536,20.4617
1637208293955,101.4635,27.2438,18.8107
1637208293971,101.8287,27.135,20.4988
1637208293985,102.4862,27.9149,20.6843
1637208294001,102.0844,27.4977,19.4599
1637208294017,101.5731,26.5364,19.664
1637208294031,102.0296,26.8629,20.0907
1637208294047,102.6323,27.8061,20.1834
1637208294063,102.2305,27.3526,19.1817
1637208294077,102.3218,27.407,19.0704
1637208294093,102.0114,27.008,19.5712
1637208294109,102.7053,26.9899,20.7585
1637208294123,103.5636,27.8242,19.6826
1637208294139,101.6461,26.9717,19.1446
1637208294155,101.4818,26.609,19.126
1637208294169,101.1531,27.661,20.3133
1637208294185,101.5913,26.9354,20.4988
1637208294201,102.7601,28.586,20.406
1637208294215,103.8376,27.8786,19.8681
1637208294231,102.7784,27.1531,19.5712
1637208294247,101.774,26.2643,20.5544
1637208294263,101.8105,25.2486,20.6843
1637208294277,101.5548,25.1397,20.6286
1637208294293,101.08,24.904,18.8849
1637208294309,101.3539,26.6271,19.293
1637208294323,101.7009,27.4796,20.1463
1637208294339,102.4862,27.4615,20.0165
1637208294355,102.1575,29.7832,21.0739
1637208294369,101.4818,27.6428,19.8866
1637208294385,102.1209,26.5908,19.5156
1637208294401,102.4679,26.0467,18.4767
1637208294415,101.9931,27.4433,19.5156
1637208294431,100.733,27.7335,20.2391
1637208294447,101.4818,27.6066,20.2947
1637208294461,100.5869,27.0987,18.9405
1637208294477,100.1669,25.5025,20.0721
1637208294493,101.4452,26.355,19.4228
1637208294507,102.1209,28.2051,21.0368
1637208294523,102.7601,27.2801,21.2223
1637208294539,101.7192,26.9717,20.0165
1637208294553,100.4774,27.4615,19.7011
1637208294569,101.4452,27.9149,19.6269
1637208294585,101.3722,28.4409,20.1463
1637208294599,102.4679,28.6405,20.1278
1637208294615,102.8514,27.7517,19.831
1637208294631,102.5957,26.881,18.755
1637208294647,101.9566,28.2595,18.3654
1637208294661,102.9062,27.0987,20.8327
1637208294677,103.1619,27.2801,21.7232
1637208294693,102.8149,27.6066,20.5915
1637208294707,102.5775,26.6815,20.1649
1637208294723,101.5913,26.1736,19.7197
1637208294739,100.8061,27.6066,19.2188
1637208294753,101.1165,27.1894,19.8124
1637208294769,101.7192,25.4481,19.5156
1637208294785,102.4679,26.9173,18.6994
1637208294799,102.7784,26.5545,19.5527
1637208294815,102.9792,28.6949,19.9052
1637208294831,101.8653,27.3345,19.4043
1637208294845,101.7922,27.2075,18.9962
1637208294861,101.5913,27.1712,19.2002
1637208294877,100.7878,27.0987,18.9591
1637208294891,101.2991,27.0987,19.4228
1637208294907,102.9427,27.8424,19.664
1637208294923,102.7418,27.4252,18.2356
1637208294937,102.6505,27.407,19.3486
1637208294953,102.7053,27.3889,19.2559
1637208294969,101.4087,25.956,18.588
1637208294983,101.5366,26.1011,19.1075
1637208294999,102.5592,28.2777,18.6437
1637208295015,102.3949,27.7698,18.0872
1637208295031,102.2122,27.661,18.4953
1637208295045,103.0523,27.2619,20.2947
1637208295061,103.1071,27.1712,20.5359
1637208295077,102.4679,27.2982,18.1799
1637208295091,101.427,26.9354,19.9237
1637208295107,100.7878,27.7154,19.6454
1637208295123,101.5731,27.6428,20.4802
1637208295137,101.9383,27.7154,21.1666
1637208295153,103.0888,27.135,20.6658
1637208295169,102.0662,27.0443,19.1817
1637208295183,102.2122,28.3502,19.2559
1637208295199,102.9427,28.8581,18.8849
1637208295215,103.2897,28.2595,18.9962
1637208295229,103.0523,28.2414,19.7939
1637208295245,102.4862,27.4433,20.0536
1637208295261,102.6688,26.1374,19.3115
1637208295275,102.4314,25.1035,19.2373
1637208295291,102.541,26.6452,18.5695
1637208295307,101.9931,27.1712,18.0872
1637208295321,101.5,27.1531,18.3654
1637208295337,100.9339,25.4481,19.1075
1637208295353,101.5731,26.2643,18.0686
1637208295367,103.1801,27.6791,20.5173
1637208295383,102.7784,28.1689,20.3318
1637208295399,102.2853,27.0443,19.9237
1637208295415,102.5957,26.7722,18.6808
1637208295429,101.9931,27.6791,17.5121
1637208295445,101.774,27.0987,17.9759
1637208295461,101.7009,25.3393,17.7904
1637208295475,102.2305,26.6634,19.5341
1637208295491,101.4818,28.6949,18.0686
1637208295507,102.0114,28.0056,18.4211
1637208295521,102.6688,27.4977,18.6066
1637208295537,102.5044,27.9149,19.4043
1637208295553,101.8653,27.8968,19.5156
1637208295567,103.1984,27.4433,19.831
1637208295583,103.1801,26.2462,18.7736
1637208295599,102.9062,27.8242,18.4396
1637208295613,102.1027,26.6996,18.0501
1637208295629,102.0114,25.9378,19.0889
1637208295645,102.9792,26.8448,20.6658
1637208295659,103.6732,28.5679,21.6118
1637208295675,103.6732,28.4591,21.0739
1637208295691,102.7784,27.2801,21.853
1637208295705,102.9062,26.9354,20.8884
1637208295721,102.8332,27.9331,18.0501
1637208295737,101.2261,27.4252,17.5492
1637208295751,101.1531,27.9149,20.3133
1637208295767,101.1531,29.493,19.5712
1637208295783,101.6279,28.6767,19.5156
1637208295799,100.9704,27.8424,17.0669
1637208295813,101.8835,27.2801,17.7347
1637208295829,101.8653,27.3889,18.6251
1637208295845,102.2488,28.7856,20.3689
1637208295859,102.2122,27.8424,19.9423
1637208295875,102.3218,26.9717,20.2205
1637208295891,101.9748,27.4796,17.5492
1637208295905,102.5044,27.5703,18.6622
1637208295921,102.7966,27.5703,17.8089
1637208295937,102.5227,27.6791,15.1561
1637208295951,102.1027,28.2777,16.8999
1637208295967,103.1436,28.0056,17.7533
1637208295983,103.4906,27.407,17.1967
1637208295997,103.9837,27.7698,19.2002
1637208296013,102.9792,27.5884,19.1817
1637208296029,101.4635,26.5908,18.1799
1637208296043,101.6644,26.7359,18.2727
1637208296059,102.5044,26.4094,18.8663
1637208296075,102.2853,25.6295,17.6605
1637208296089,101.6279,26.482,18.6994
1637208296105,102.5775,27.0443,18.9405
1637208296121,102.7601,26.7359,19.4228
1637208296135,103.3993,26.6452,19.1446
1637208296151,102.3949,25.956,17.4008
1637208296167,102.7966,24.9402,18.4767
1637208296183,103.1984,27.135,20.1463
1637208296197,103.034,27.5884,20.202
1637208296213,102.194,27.4977,18.8107
1637208296229,101.9748,28.8762,18.5138
1637208296243,101.9931,27.2619,18.384
1637208296259,102.9975,27.2438,19.4414
1637208296275,101.5548,25.9016,19.3486
1637208296289,102.0479,27.008,19.3672
1637208296305,102.1027,27.1894,18.9776
1637208296321,102.6871,26.7722,19.0889
1637208296335,103.5271,27.8424,19.4414
1637208296351,103.8923,26.6634,20.3318
1637208296367,102.6323,26.7722,20.5359
1637208296381,103.9106,27.4977,19.6454
1637208296397,103.5636,27.4977,18.9591
1637208296413,102.5775,26.9899,19.6826
1637208296427,101.2078,26.7359,19.3301
1637208296443,101.3539,26.1918,19.0518
1637208296459,101.1348,27.135,18.4953
1637208296473,102.4862,25.9378,18.6994
1637208296489,102.6505,25.9016,17.6605
1637208296505,102.0114,28.0419,18.588
1637208296519,102.2853,27.7335,17.4564
1637208296535,102.7784,27.0987,17.6976
1637208296551,102.614,27.4433,19.6269
1637208296567,101.4818,28.0963,19.2188
1637208296581,101.8835,27.6428,21.1295
1637208296597,101.9748,27.6428,21.7603
1637208296613,101.5548,27.6247,20.2947
1637208296627,101.2991,28.3321,17.2895
1637208296643,103.034,28.3502,18.5509
1637208296659,103.3262,28.0782,19.5156
1637208296673,103.308,27.4977,19.9608
1637208296689,104.0384,27.4252,20.0165
1637208296705,104.3489,26.3187,20.4802
1637208296719,102.961,25.2123,19.1446
1637208296735,102.6688,26.1374,18.4582
1637208296751,102.5957,27.0806,20.4431
1637208296765,101.8105,27.4252,19.2373
1637208296781,100.5321,27.5884,19.4599
1637208296797,101.3905,28.4409,20.6843
1637208296811,102.5957,27.8424,20.5915
1637208296827,103.2532,25.5207,19.6454
1637208296843,102.5227,25.5569,19.2559
1637208296857,102.0296,26.9536,18.588
1637208296873,102.961,26.1555,19.4043
1637208296889,102.8514,26.7359,19.6083
1637208296903,102.194,27.0624,20.0721
1637208296919,100.66,26.7178,19.4599
1637208296935,101.6826,27.8424,19.4785
1637208296951,103.6184,26.4094,19.8495
1637208296965,103.6002,25.7565,20.2391
1637208296981,102.6505,25.7746,19.9237
1637208296997,102.1209,26.881,20.8698
1637208297011,101.7192,26.8992,22.0756
1637208297027,102.1757,27.8424,21.5933
1637208297043,102.6505,26.8992,20.9626
1637208297057,102.5044,26.881,20.8327
1637208297073,102.267,26.6452,21.0368
1637208297089,102.7418,26.5001,21.4263
1637208297103,101.6644,26.3732,20.1092
1637208297119,102.1575,25.702,20.8327
1637208297135,101.8287,25.9197,19.9237
1637208297149,103.1071,25.9923,20.2762
1637208297165,102.267,26.3913,20.573
1637208297181,102.3401,26.7359,20.8327
1637208297195,101.6096,27.5159,22.391
1637208297211,101.8287,26.3732,22.6878
1637208297227,102.8149,25.2304,21.5005
1637208297241,102.5957,26.3732,19.2002
1637208297257,102.7053,26.5545,21.2223
1637208297273,101.847,26.2462,20.7585
1637208297287,101.9931,27.0624,21.0924
1637208297303,102.2488,26.5364,20.9811
1637208297319,102.5592,26.5545,19.9423
1637208297335,103.2349,26.0648,18.7179
1637208297349,103.3445,25.9197,18.4582
1637208297365,101.6826,26.8448,19.8124
1637208297381,101.1165,26.8266,20.202
1637208297395,100.9887,26.5545,19.9608
1637208297411,101.3539,25.4118,18.6437
1637208297427,102.0662,25.6839,18.9405
1637208297441,103.0158,26.4094,20.1092
1637208297457,101.9383,26.0648,20.8884
1637208297473,102.194,25.8471,20.4246
1637208297487,102.267,25.4118,20.1092
1637208297503,102.267,26.1736,19.6454
1637208297519,103.0706,25.9197,18.6251
1637208297533,102.9792,26.4094,19.7011
1637208297549,102.7053,26.8992,20.8884
1637208297565,102.8332,26.6271,20.2947
1637208297579,103.0706,26.9536,18.9962
1637208297595,103.1984,27.661,18.6437
1637208297611,102.0479,27.1168,19.5898
1637208297625,102.1757,26.5545,19.6083
1637208297641,102.8879,27.8424,21.7417
1637208297657,102.2305,28.9851,22.4281
1637208297671,102.1757,28.4047,21.1481
1637208297687,103.4358,27.1168,20.7771
1637208297703,103.9106,26.9173,19.6269
1637208297719,103.1071,26.3913,19.4043
1637208297733,101.1896,27.9512,19.3672
1637208297749,101.1713,27.3345,19.4228
1637208297765,101.5366,26.609,20.3689
1637208297779,102.2305,27.0624,19.6083
1637208297795,102.6871,25.3574,20.1649
1637208297811,102.5044,25.1579,19.9794
1637208297825,103.6184,28.0419,19.4228
1637208297841,102.6323,28.7674,18.4953
1637208297857,101.6096,27.8242,17.9388
1637208297871,101.8835,27.3708,17.7904
1637208297887,103.4541,26.5545,19.2559
1637208297903,102.7784,24.9946,20.1092
1637208297917,101.1896,25.9378,18.5695
1637208297933,102.1027,27.2982,20.0536
1637208297949,101.5183,27.8605,19.1446
1637208297963,102.0114,27.008,17.9388
1637208297979,103.0888,27.4796,20.6472
1637208297995,103.308,27.1712,20.9997
1637208298009,102.7601,27.7517,20.4431
1637208298025,101.5913,27.8424,20.3318
1637208298041,101.6826,28.5316,19.9608
1637208298055,100.9156,28.3321,19.9052
1637208298071,101.7192,27.4252,19.1446
1637208298087,102.0662,26.0467,18.4953
1637208298103,102.4314,25.702,18.2727
1637208298117,103.5454,26.6996,19.1817
1637208298133,103.9837,27.9331,20.1278
1637208298149,102.8149,27.9512,20.8327
1637208298163,101.9566,27.8786,19.3486
1637208298179,102.4131,27.0806,18.5509
1637208298195,102.5775,27.6247,17.6234
1637208298209,103.6549,28.06,18.8663
1637208298225,104.2758,27.2801,18.2356
1637208298241,102.3218,25.956,16.9927
1637208298255,101.9018,25.7927,16.8257
1637208298271,101.7557,26.3913,18.4396
1637208298287,102.0844,26.3913,19.126
1637208298301,101.9931,26.1192,18.4211
1637208298317,100.8609,26.3369,18.5695
1637208298333,101.1165,27.0624,18.7736
1637208298347,101.9566,27.9149,19.831
1637208298363,101.2078,28.1689,18.2912
1637208298379,100.1852,27.3708,18.4767
1637208298393,101.0617,26.609,18.7921
1637208298409,101.7009,28.6042,19.4785
1637208298425,103.9289,27.9512,18.4396
1637208298439,103.8376,28.9125,18.6066
1637208298455,102.267,27.5703,18.8292
1637208298471,101.5183,27.4796,20.1092
1637208298487,102.6505,28.6586,20.8142
1637208298501,101.8835,29.2934,20.74
1637208298517,102.267,28.8218,20.5544
1637208298533,101.7009,27.3526,19.9423
1637208298547,102.2853,27.5521,19.1446
1637208298563,102.5044,27.6428,18.1057
1637208298579,102.4862,26.8992,17.1596
1637208298593,101.9566,26.7722,17.3822
1637208298609,102.194,26.3187,19.1075
1637208298625,101.7922,26.4276,19.126
1637208298639,102.4314,27.2438,19.6826
1637208298655,102.0844,26.6452,20.0165
1637208298671,102.1757,26.7903,19.8124
1637208298685,102.541,25.7202,20.3689
1637208298701,102.1392,26.1918,18.3654
1637208298717,102.7601,26.2462,17.7904
1637208298731,101.847,26.9354,18.0315
1637208298747,102.3036,26.6634,18.2356
1637208298763,102.4679,27.6973,19.0889
1637208298777,101.8653,27.534,18.9405
1637208298793,103.0706,27.6791,18.8849
1637208298809,103.2714,29.5111,18.3469
1637208298823,102.9792,28.6767,18.5138
1637208298839,102.0296,28.2777,19.2559
1637208298855,101.7557,29.0939,20.1092
1637208298871,101.0983,29.1665,19.5341
1637208298885,101.5548,28.5679,18.5509
1637208298901,102.3218,27.3164,16.8257
1637208298917,101.7009,25.702,17.0669
1637208298931,101.6279,26.4094,18.6437
1637208298947,101.7922,26.7178,18.7365
1637208298963,102.5227,26.7541,19.4599
1637208298977,102.0114,26.8085,17.7718
1637208298993,103.1436,26.5183,17.8646
1637208299009,103.2349,25.4481,19.9979
1637208299023,102.541,27.1168,20.7956
1637208299039,102.3401,26.3732,20.944
1637208299055,102.5044,27.2257,19.5341
1637208299069,103.0888,27.6791,17.6419
1637208299085,103.4906,27.4615,15.7683
1637208299101,103.4906,27.5884,17.4935
1637208299115,102.6871,27.2438,17.475
1637208299131,102.5775,26.9899,17.8089
1637208299147,102.5592,27.3526,19.1446
1637208299161,102.4131,27.008,19.4785
1637208299177,100.386,26.3913,19.8124
1637208299193,101.427,26.9173,19.664
1637208299207,102.9792,27.5884,19.497
1637208299223,104.2941,26.4457,18.7365
1637208299239,102.9792,26.1192,19.7568
1637208299255,102.7053,26.8085,20.6472
1637208299269,103.2897,26.8629,21.5005
1637208299285,104.0932,26.5183,20.202
1637208299301,103.5819,26.2099,19.8124
1637208299315,102.7784,25.8109,18.6066
1637208299331,102.6505,26.8448,18.9405
1637208299347,101.6279,26.7541,19.6083
1637208299361,101.9201,27.2801,19.8124
1637208299377,102.2853,27.2257,19.2559
1637208299393,102.3766,26.5727,17.9759
1637208299407,102.8879,26.8629,19.7382
1637208299423,102.7966,27.0987,19.2188
1637208299439,102.7966,27.5159,18.1985
1637208299453,103.308,27.3889,20.6101
1637208299469,103.3445,28.3684,21.1295
1637208299485,101.6279,26.5364,19.664
1637208299499,101.8835,26.881,20.7585
1637208299515,101.2991,27.7335,19.0147
1637208299531,100.2217,27.2619,18.9962
1637208299545,101.9018,26.6271,20.1092
1637208299561,103.4175,26.4276,20.4431
1637208299577,103.8558,26.1918,17.9388
1637208299591,102.6871,27.1894,18.8849
1637208299607,101.7922,28.3502,20.5544
1637208299623,102.1575,27.5703,20.3133
1637208299639,102.267,26.7722,20.1649
1637208299653,101.5548,26.5001,19.0704
1637208299669,100.7513,26.482,18.8292
1637208299685,102.3036,26.9354,19.7753
1637208299699,102.3949,27.2438,19.7382
1637208299715,102.0479,27.3345,19.3301
1637208299731,102.267,27.7154,18.5509
1637208299745,102.5044,27.1712,18.9776
1637208299761,102.961,26.2825,17.104
1637208299777,102.4862,27.0987,18.5138
1637208299791,102.1209,27.7879,20.7585
1637208299807,101.2444,27.3345,20.5915
1637208299823,101.4818,26.3913,19.5341
1637208299837,101.3357,26.7903,19.9052
1637208299853,101.3539,26.9536,19.7197
1637208299869,102.3766,27.4977,18.8292
1637208299883,102.2853,27.3889,20.035
1637208299899,101.7192,27.9693,20.5359
1637208299915,101.4087,27.534,20.6843
1637208299929,101.9748,26.2099,21.0553
1637208299945,101.8835,26.5183,19.8866
1637208299961,102.1575,27.6791,21.1481
1637208299975,102.0479,25.6476,21.0553
1637208299991,101.9018,26.5001,20.2391
1637208300007,101.0252,27.3708,20.6286
1637208300023,101.0983,27.1894,21.8901
1637208300037,102.1027,25.1579,20.6101
1637208300053,102.0479,25.3937,20.1649
1637208300069,101.8835,26.2643,20.5544
1637208300083,101.3539,26.355,20.6286
1637208300099,101.7557,26.2099,20.8698
1637208300115,102.5227,25.43,21.0553
1637208300129,102.0114,26.3006,21.1481
1637208300145,102.194,26.9354,20.7214
1637208300161,101.6461,26.8448,20.6101
1637208300175,101.4818,26.5908,19.5712
1637208300191,102.4314,27.9512,20.0165
1637208300207,101.8105,27.9331,19.5341
1637208300221,103.2532,28.713,17.4564
1637208300237,103.3628,26.0467,18.0501
1637208300253,101.6644,25.7383,18.9962
1637208300267,102.5227,26.6815,21.0368
1637208300283,102.7236,25.9378,21.8159
1637208300299,103.5271,25.9378,20.6286
1637208300313,102.9062,26.3006,20.202
1637208300329,102.0844,25.829,21.1295
1637208300345,102.0114,25.0309,19.9608
1637208300359,103.381,25.1397,20.1092
1637208300375,101.8835,26.3006,19.5527
1637208300391,101.7374,25.43,17.9759
1637208300407,101.427,26.2825,20.0721
1637208300421,102.0844,26.2099,19.5156
1637208300437,102.6505,27.2257,18.5138
1637208300453,102.9792,26.6271,18.6066
1637208300467,103.0706,28.0782,20.9069
1637208300483,102.4131,27.4433,20.4617
1637208300499,103.9289,27.5884,18.5324
1637208300513,104.3854,27.661,20.035
1637208300529,102.5775,27.7517,20.4617
1637208300545,102.1575,28.2958,20.4988
1637208300559,101.3722,28.586,19.0704
1637208300575,101.8105,26.9354,19.5341
1637208300591,103.1436,26.1736,19.5341
1637208300605,102.3036,26.3369,19.5527
1637208300621,101.9201,26.7359,20.5544
1637208300637,102.7784,27.407,20.5915
1637208300651,102.5044,27.2801,20.0907
1637208300667,102.7053,26.4276,21.4078
1637208300683,102.9975,26.2462,19.6269
1637208300697,102.9427,25.9197,17.6976
1637208300713,103.0523,25.9741,19.3115
1637208300729,103.2349,26.1918,19.6826
1637208300743,102.8149,26.8992,18.3283
1637208300759,101.9566,27.3708,19.3301
1637208300775,102.9062,27.4615,20.74
1637208300791,102.4497,27.0443,20.406
1637208300805,102.0479,27.1168,19.8866
1637208300821,102.4131,27.4615,17.4379
1637208300837,102.7784,29.4204,18.0872
1637208300851,102.961,29.6562,18.9591
1637208300867,101.6826,26.6815,19.4599
1637208300883,101.3722,26.6271,17.7162
1637208300897,101.2991,28.314,18.8292
1637208300913,101.2991,27.8605,20.7585
1637208300929,101.007,27.1168,20.8513
1637208300943,100.3495,25.829,21.2779
1637208300959,101.6461,26.609,18.7921
1637208300975,102.3949,27.534,18.7736
1637208300989,102.3766,27.8786,21.1666
1637208301005,102.0296,26.1918,17.2709
1637208301021,102.3766,26.6815,19.1075
1637208301035,101.9931,27.008,19.5712
1637208301051,103.3993,27.7879,20.3504
1637208301067,102.2305,27.9693,19.9237
1637208301081,102.0662,26.9717,20.1092
1637208301097,102.1392,26.7903,19.5527
1637208301113,102.1209,27.4433,18.8849
1637208301127,102.0662,27.9331,18.755
1637208301143,101.3722,27.6247,19.2744
1637208301159,101.3174,27.9693,18.8478
1637208301175,102.6688,26.4638,19.9237
1637208301189,103.801,25.8109,18.6251
1637208301205,103.6915,26.0648,18.2541
1637208301221,101.3539,26.9354,18.6994
1637208301235,102.8879,26.6634,19.4043
1637208301251,103.2167,26.1555,18.7179
1637208301267,103.3262,27.3164,19.8681
1637208301281,101.4818,28.6949,21.4634
1637208301297,99.6738,27.4252,20.0907
1637208301313,100.6235,26.8448,20.6472
1637208301327,102.6505,28.1507,20.2205
1637208301343,102.0662,29.0939,19.5341
1637208301359,101.4635,27.8424,18.9405
1637208301373,102.5044,27.2257,18.9591
1637208301389,102.3949,29.0576,17.9017
1637208301405,102.8697,28.7493,18.3283
1637208301419,102.7053,27.9149,18.217
1637208301435,102.9427,26.9173,17.8646
1637208301451,102.4497,26.5545,19.1817
1637208301465,103.1801,27.2257,18.7365
1637208301481,103.4358,27.2438,17.0854
1637208301497,101.7374,26.355,16.5474
1637208301511,101.6461,26.1555,18.5695
1637208301527,102.3401,26.2462,18.8849
1637208301543,101.6279,26.4276,18.4396
1637208301559,101.7192,28.3684,18.2541
1637208301573,101.6279,27.8968,17.5677
1637208301589,102.2853,27.9693,18.9776
1637208301605,101.9748,27.8968,18.755
1637208301619,102.9062,28.5679,17.6976
1637208301635,103.2349,28.7856,19.293
1637208301651,103.0158,28.3321,19.6454
1637208301665,103.8193,27.3708,19.8681
1637208301681,103.1253,27.2801,19.9794
1637208301697,102.0296,28.0963,19.3672
1637208301711,101.08,25.8834,19.2373
1637208301727,102.1027,27.3164,18.6066
1637208301743,102.7601,28.1689,18.4953
1637208301757,102.3949,27.5159,18.4767
1637208301773,102.5227,25.8834,19.664
1637208301789,102.194,26.9717,20.6843
1637208301803,102.3218,27.3708,18.8478
1637208301819,102.1757,27.2257,17.5677
1637208301835,103.1984,25.8471,18.5138
1637208301849,102.2305,26.1011,18.4767
1637208301865,101.0617,25.8653,18.5509
1637208301881,100.5687,25.6658,19.9423
1637208301895,102.4862,26.7541,20.3318
1637208301911,102.4679,27.4796,18.4582
1637208301927,103.3445,26.4457,17.6605
1637208301943,102.3583,27.6066,19.1817
1637208301957,102.3949,28.9307,19.7011
1637208301973,103.1436,28.1326,19.9052
1637208301989,103.4541,27.8424,19.6269
1637208302003,103.1436,27.9149,18.5324
1637208302019,101.9748,27.3708,17.8831
1637208302035,102.0662,26.9536,18.217
1637208302049,101.7922,26.9899,18.2727
1637208302065,102.194,26.6271,18.755
1637208302081,101.3905,26.6996,18.755
1637208302095,102.1027,27.5703,18.588
1637208302111,102.1575,27.8786,19.0889
1637208302127,102.5044,27.8605,20.3504
1637208302141,103.4175,27.661,19.6454
1637208302157,102.5957,26.881,19.1817
1637208302173,101.7192,27.2257,16.1208
1637208302187,103.0706,28.6586,18.0315
1637208302203,103.4358,29.1483,17.9202
1637208302219,102.961,28.586,18.2727
1637208302233,102.8149,28.3502,19.3486
1637208302249,101.2809,27.8424,20.8698
1637208302265,101.774,27.5159,20.406
1637208302279,101.8287,27.8605,19.4785
1637208302295,102.194,27.3708,19.5341
1637208302311,102.0662,26.3732,18.1985
1637208302327,101.9566,27.534,18.2727
1637208302341,101.7192,28.3865,20.3318
1637208302357,101.8105,27.4433,19.3672
1637208302373,102.1392,26.482,20.5359
1637208302387,102.8879,27.6973,19.9237
1637208302403,102.7784,26.9354,19.5527
1637208302419,103.2532,27.5159,19.0147
1637208302433,102.194,29.0576,19.0704
1637208302449,101.5366,28.713,18.8478
1637208302465,101.7192,26.8448,18.4211
1637208302479,102.0479,27.661,19.8866
1637208302495,101.774,27.008,19.4228
1637208302511,101.7009,26.0467,18.8849
1637208302525,101.3174,26.3006,18.1057
1637208302541,102.0479,26.4457,19.1631
1637208302557,103.2897,26.6815,21.9272
1637208302571,102.1027,26.9173,19.9237
1637208302587,102.1392,26.9717,19.6826
1637208302603,102.7966,27.5159,21.315
1637208302617,102.3401,26.9717,21.3707
1637208302633,102.614,26.6634,22.4281
1637208302649,102.3218,26.7359,21.9643
1637208302663,102.9792,27.534,19.7568
1637208302679,102.1757,27.6247,19.0333
1637208302695,101.5183,26.7541,19.3301
1637208302711,100.9887,27.1168,21.2223
1637208302725,100.5687,29.0939,22.391
1637208302741,101.0252,27.7879,21.6118
1637208302757,101.9383,25.8109,19.2744
1637208302771,101.9566,25.9378,19.2744
1637208302787,103.0158,26.5727,20.035
1637208302803,101.6826,25.6658,18.3098
1637208302817,101.9931,26.7359,19.0147
1637208302833,103.5636,27.2801,20.2947
1637208302849,103.6184,27.9875,19.3486
1637208302863,101.3174,26.3913,18.2541
1637208302879,100.5687,26.5183,19.3672
1637208302895,100.8609,26.9354,20.2391
1637208302909,101.1896,27.5521,19.831
1637208302925,102.3036,27.1168,19.0518
1637208302941,102.8697,27.8061,19.126
1637208302955,102.8697,27.3708,18.2727
1637208302971,102.2853,26.4457,17.9388
1637208302987,101.9566,27.008,18.8663
1637208303001,102.1209,27.0987,20.1834
1637208303017,101.6461,26.9354,20.7029
1637208303033,101.9201,26.0467,19.3672
1637208303047,102.194,25.1942,19.4599
1637208303063,100.5504,26.5545,19.9979
1637208303079,100.7696,27.4977,19.4043
1637208303095,101.5,27.0806,18.8663
1637208303109,101.9383,26.8266,19.4599
1637208303125,101.2444,26.8085,20.3689
1637208303141,103.0888,26.881,20.0721
1637208303155,103.5636,27.5884,20.3318
1637208303171,102.6688,27.8786,19.9608
1637208303187,103.0523,27.8424,20.6472
1637208303201,101.9201,27.5884,17.7533
1637208303217,102.0479,27.135,19.0333
1637208303233,102.1757,27.4977,20.3875
1637208303247,102.6871,26.609,18.1428
1637208303263,102.3583,26.3006,17.9759
1637208303279,102.3218,27.1531,19.5898
1637208303293,102.5775,27.3708,19.5156
1637208303309,103.5819,27.1531,19.0147
1637208303325,103.6367,27.008,21.0924
1637208303339,102.8332,27.1531,19.6083
1637208303355,102.7053,25.9923,20.5173
1637208303371,102.9427,25.1035,20.202
1637208303385,102.8879,26.3732,19.8495
1637208303401,102.4862,27.8968,20.4431
1637208303417,102.3949,28.3865,20.8698
1637208303431,102.541,27.135,21.1666
1637208303447,102.961,26.7903,20.1834
1637208303463,102.541,26.5545,20.0721
1637208303479,101.5731,25.9741,18.4767
1637208303493,101.1165,26.0467,18.7365
1637208303509,101.4087,26.3913,19.2559
1637208303525,103.381,27.2982,20.3504
1637208303539,103.0888,27.6247,20.944
1637208303555,102.2488,26.7541,18.922
1637208303571,101.5183,27.0806,19.9608
1637208303585,101.3539,27.1712,18.9776
1637208303601,101.5548,27.135,18.2356
1637208303617,101.6096,26.8266,19.2373
1637208303631,101.8105,26.5908,19.1446
1637208303647,102.7601,27.3526,18.2356
1637208303663,101.5548,26.0829,18.6437
1637208303677,102.1209,26.6271,18.9405
1637208303693,101.4087,26.0104,19.5341
1637208303709,101.5366,26.5364,19.6826
1637208303723,102.0662,27.0987,21.0739
1637208303739,103.3993,28.0419,20.5915
1637208303755,101.9748,27.4796,20.3133
1637208303769,102.0479,27.008,17.9573
1637208303785,103.5271,27.5703,18.7179
1637208303801,102.2488,26.3187,18.1243
1637208303815,102.0296,25.1579,19.0518
1637208303831,101.8287,26.0104,19.9979
1637208303847,101.9383,26.0104,20.4431
1637208303863,102.3583,26.5183,20.202
1637208303877,101.5,26.5727,18.9776
1637208303893,101.5183,26.6996,17.3637
1637208303909,102.0844,26.6815,18.7365
1637208303923,102.3766,26.1555,17.8646
1637208303939,101.9018,25.0491,18.8292
1637208303955,103.1619,25.5388,18.2541
1637208303969,100.733,25.2304,18.3283
1637208303985,102.8879,25.4481,19.0518
1637208304001,103.2897,26.6271,18.6808
1637208304015,103.1619,27.4252,19.0704
1637208304031,102.0114,26.4094,20.1278
1637208304047,101.7922,26.8448,17.679
1637208304061,102.6871,27.6247,17.0854
1637208304077,102.6323,28.187,18.8292
1637208304093,104.2758,27.6791,19.2744
1637208304107,103.5271,27.1531,17.4564
1637208304123,102.9245,25.6839,18.588
1637208304139,101.5183,26.1736,18.1057
1637208304153,100.4226,27.008,17.7162
1637208304169,101.7009,26.3006,17.4379
1637208304185,101.4452,27.8605,18.9591
1637208304201,101.9748,28.0237,18.3469
1637208304215,102.9975,28.6042,19.7011
1637208304231,104.6228,28.5679,17.9759
1637208304247,102.7966,26.609,15.9538
1637208304261,101.847,25.9378,16.7144
1637208304277,102.0844,27.4796,18.9034
1637208304293,103.4541,28.6949,20.3318
1637208304307,101.847,28.4228,20.4617
1637208304323,100.7148,28.2414,17.8275
1637208304339,100.6235,27.3708,17.8275
1637208304353,102.4131,27.4433,19.5712
1637208304369,103.308,27.2982,18.8663
1637208304385,102.0479,27.2257,18.4953
1637208304399,102.7236,27.135,17.6419
1637208304415,102.0844,27.3526,17.8646
1637208304431,101.1531,27.2619,18.1614
1637208304445,100.7878,27.0443,18.013
1637208304461,100.8609,27.1531,19.5341
1637208304477,102.9245,26.2825,19.4599
1637208304491,103.2532,26.0829,18.6437
1637208304507,102.2305,27.0261,17.8646
1637208304523,103.1619,27.1168,18.1614
1637208304537,102.9062,27.407,18.384
1637208304553,102.7601,28.1507,19.0518
1637208304569,102.541,28.1507,19.4785
1637208304585,102.0844,27.1894,18.9776
1637208304599,101.7374,26.3006,19.8124
1637208304615,102.7053,26.4276,19.7011
1637208304631,103.1071,26.6271,18.4767
1637208304645,102.8879,27.0987,18.0501
1637208304661,102.4862,26.8085,18.8292
1637208304677,102.6323,26.5545,18.013
1637208304691,102.7784,26.881,16.5474
1637208304707,103.4175,28.7493,16.8999
1637208304723,104.2941,28.8944,19.3115
1637208304737,104.3489,27.2619,21.7788
1637208304753,101.5548,26.0648,18.5695
1637208304769,100.1304,25.7927,17.2524
1637208304783,101.6279,26.3913,19.1817
1637208304799,102.1757,27.3345,17.9388
1637208304815,103.0523,27.2801,18.755
1637208304829,102.194,26.2825,21.2779
1637208304845,102.1757,26.3732,20.4617
1637208304861,103.2167,26.9354,18.7921
1637208304875,103.8923,27.1894,19.0518
1637208304891,104.3124,27.5521,18.5324
1637208304907,103.4723,27.9149,18.8292
1637208304921,102.8514,27.7698,19.3301
1637208304937,102.8332,28.5498,19.7197
1637208304953,101.6279,26.881,18.7736
1637208304969,100.3495,28.06,17.9017
1637208304983,99.5643,27.6973,19.831
1637208304999,99.8382,26.6271,19.7939
1637208305015,101.8105,26.9717,19.8495
1637208305029,102.541,27.3164,18.4025
1637208305045,102.1757,27.5521,17.7162
1637208305061,102.6323,27.8786,19.5341
1637208305075,101.9931,28.4228,20.8884
1637208305091,101.6461,27.8242,20.4431
1637208305107,100.1852,26.8266,20.4802
1637208305121,101.2626,26.9536,20.2947
1637208305137,102.4497,27.3889,18.6994
1637208305153,101.3357,27.2075,18.7921
1637208305167,101.0983,28.4047,19.1446
1637208305183,101.427,27.534,18.3283
