timestamp,accel_x,accel_y,accel_z
1637208258268,102.7908,-1.2764,-0.6
1637208258284,103.7525,-2.2869,-0.9455
1637208258300,104.1086,-2.0387,-1.0364
1637208258314,103.3785,-1.8969,-0.8182
1637208258330,102.4703,-2.0742,0.4364
1637208258346,101.8291,-2.5174,-0.6546
1637208258360,102.3456,-1.6842,1.4001
1637208258376,102.9511,-1.6664,-0.3637
1637208258392,103.0045,-0.9928,0.4909
1637208258406,102.0428,-1.241,0.6728
1637208258422,102.4524,-0.8332,0.6364
1637208258438,102.9867,-1.2941,0.2
1637208258452,102.684,-1.8792,0.4546
1637208258468,100.4935,-3.0315,0.4182
1637208258484,101.2771,-1.4714,0.4364
1637208258498,101.6511,-1.2587,-0.5455
1637208258514,102.1141,-1.7019,-0.2727
1637208258530,102.0607,-1.9324,-1.1637
1637208258544,102.4703,-1.2941,-0.3273
1637208258560,102.1497,-1.2764,0.4364
1637208258576,102.8798,-1.4714,-0.5273
1637208258590,102.8264,-0.195,-1.0728
1637208258606,101.9894,-0.5141,-0.3637
1637208258622,101.099,-0.7978,-1.1273
1637208258638,102.3278,-1.0282,-0.9819
1637208258652,101.847,-0.7091,-0.1091
1637208258668,101.4374,-0.4255,0.9637
1637208258684,101.4908,0.4255,1.1455
1637208258698,101.8648,0.5496,0.8364
1637208258714,102.1675,-0.0886,-0.3091
1637208258730,102.1497,-1.6664,-1.0364
1637208258744,102.3812,-1.826,-1.6728
1637208258760,101.5976,-1.4892,0.1091
1637208258776,102.4703,-0.9041,-0.5273
1637208258790,103.7525,-1.2764,-0.2
1637208258806,102.6127,-1.1346,-0.2909
1637208258822,100.9565,-1.0282,-0.6364
1637208258836,101.3661,-1.5955,-0.4182
1637208258852,101.6867,-1.6133,-1.4546
1637208258868,101.4374,-1.4005,-0.5273
1637208258882,101.3127,-1.1169,0.5819
1637208258898,101.2415,-1.3119,0.8
1637208258914,99.888,-1.3296,1.1092
1637208258928,100.8675,-1.046,-1.5455
1637208258944,101.9538,-0.1241,-2.4001
1637208258960,103.1114,0.4787,-1.4183
1637208258974,103.1648,0,-0.8364
1637208258990,102.7374,-1.6842,0.6182
1637208259006,102.4703,-3.0847,1.3273
1637208259022,103.0757,-2.411,1.3819
1637208259036,102.0428,-2.1983,-0.2727
1637208259052,102.2031,-2.3046,-0.2909
1637208259068,102.5949,-0.8509,0.5273
1637208259082,101.8826,-1.0991,-0.0364
1637208259098,101.9716,-2.0742,0.2546
1637208259114,102.31,-1.7551,0.0909
1637208259128,102.3456,-1.8792,-0.8546
1637208259144,103.3429,-2.1628,-0.9273
1637208259160,102.2922,-3.5988,0.1273
1637208259174,102.2565,-1.9501,-0.0909
1637208259190,102.2744,-1.7196,0.2909
1637208259206,101.6511,-1.7728,0.0545
1637208259220,101.2593,-0.2127,-0.8728
1637208259236,101.4017,-1.5069,-1.2728
1637208259252,102.6661,-1.9501,-1.0001
1637208259266,101.9894,-2.4465,-0.8182
1637208259282,102.7552,-2.021,0
1637208259298,103.2538,-2.3224,-0.1636
1637208259312,102.9689,-2.4465,1.3092
1637208259328,102.8264,-2.0565,1.5819
1637208259344,103.2004,-1.7373,2.5092
1637208259358,102.2209,-3.5279,1.9274
1637208259374,100.4045,-3.191,2.4547
1637208259390,100.2798,-4.1129,0.6728
1637208259406,100.351,-2.9606,0.0364
1637208259420,101.6867,-2.1451,-0.9273
1637208259436,102.7196,-4.0775,-0.3091
1637208259452,102.7018,-2.801,2.382
1637208259466,103.0757,-2.8365,3.0911
1637208259482,102.399,-4.2547,2.7456
1637208259498,101.9894,-2.606,2.291
1637208259512,102.773,-2.411,3.3638
1637208259528,102.5593,-3.7052,3.1456
1637208259544,102.31,-3.6874,2.2547
1637208259558,102.6305,-3.7052,3.4729
1637208259574,102.7196,-3.2265,2.6911
1637208259590,101.3661,-3.8647,2.6911
1637208259604,100.8319,-3.2974,3.1275
1637208259620,101.7223,-2.7833,1.5092
1637208259636,102.0428,-3.6165,1.1273
1637208259650,102.9333,-2.4287,2.9093
1637208259666,102.1497,-4.432,3.5638
1637208259682,100.3154,-5.7793,3.6729
1637208259696,100.9387,-4.4497,4.0911
1637208259712,102.2387,-4.9993,4.5821
1637208259728,102.773,-5.3184,4.9094
1637208259742,102.5949,-5.9389,4.3821
1637208259758,102.1497,-5.3716,4.6548
1637208259774,101.4552,-4.2015,4.5457
1637208259790,101.936,-3.9002,4.2912
1637208259804,102.9333,-3.9711,3.8002
1637208259820,102.7196,-3.8293,2.5638
1637208259836,103.0045,-4.627,2.782
1637208259850,102.8798,-4.6447,6.2913
1637208259866,102.5415,-6.7721,5.3821
1637208259882,102.684,-5.5489,3.2729
1637208259896,101.5442,-5.3539,3.6002
1637208259912,100.4579,-5.4425,4.0184
1637208259928,101.5264,-5.7616,3.8002
1637208259942,102.4346,-5.3716,3.382
1637208259958,102.9333,-4.6979,3.5093
1637208259974,102.6305,-4.9639,5.0003
1637208259988,102.4703,-5.8857,5.1094
1637208260004,102.7374,-4.822,4.2002
1637208260020,102.5415,-5.673,3.2729
1637208260034,103.7881,-4.6093,2.8729
1637208260050,103.4675,-5.1589,3.182
1637208260066,103.2004,-6.5239,5.0912
1637208260080,103.5031,-5.9921,6.2549
1637208260096,101.8291,-7.0735,5.7276
1637208260112,100.1373,-8.474,5.2912
1637208260126,99.7455,-7.9067,5.2003
1637208260142,99.6921,-7.4635,5.3639
1637208260158,102.4168,-6.7367,5.1821
1637208260174,102.9333,-6.6657,5.9276
1637208260188,104.1264,-5.868,6.2549
1637208260204,102.3634,-6.3998,5.1639
1637208260220,101.936,-6.0098,4.1275
1637208260234,102.1853,-6.5239,4.9276
1637208260250,101.3661,-7.304,4.3093
1637208260266,102.2387,-7.9776,4.0366
1637208260280,100.6716,-7.4103,4.5275
1637208260296,99.9414,-6.8785,3.9093
1637208260312,102.2387,-7.2153,3.6911
1637208260326,103.1292,-7.499,2.8911
1637208260342,103.1114,-7.8358,1.8183
1637208260358,102.9867,-7.9422,3.4911
1637208260372,101.9004,-7.2508,5.1639
1637208260388,100.9921,-7.2153,5.8731
1637208260404,101.01,-7.6762,5.6003
1637208260418,101.5976,-7.7472,5.2548
1637208260434,102.2565,-7.7472,4.9639
1637208260450,101.4374,-7.9953,3.9639
1637208260464,100.1017,-7.7294,4.0366
1637208260480,99.2469,-7.1621,4.7639
1637208260496,100.9387,-7.2862,4.073
1637208260510,100.8675,-7.4812,2.6729
1637208260526,101.2949,-6.9317,3.9093
1637208260542,102.862,-6.0453,2.0365
1637208260558,102.773,-7.3749,2.8729
1637208260572,102.1141,-8.3145,2.7638
1637208260588,101.5798,-8.2435,4.1821
1637208260604,101.5442,-8.3322,5.0548
1637208260618,103.0223,-7.5167,3.4002
1637208260634,102.9511,-7.889,2.0183
1637208260650,101.6689,-7.2153,1.4728
1637208260664,101.5264,-7.1621,1.5455
1637208260680,101.6511,-7.4281,2.1456
1637208260696,101.0634,-7.1267,1.2001
1637208260710,99.9593,-8.3145,1.1637
1637208260726,100.9565,-7.4812,1.891
1637208260742,101.936,-7.7826,1.7092
1637208260756,101.7045,-7.0203,1.7274
1637208260772,101.1346,-6.8253,2.4547
1637208260788,100.7428,-6.3112,2.0547
1637208260802,101.3127,-8.0131,2.6001
1637208260818,101.473,-8.3854,1.7274
1637208260834,101.2237,-8.2258,0.6728
1637208260848,100.9565,-8.7399,1.291
1637208260864,101.4552,-9.8745,0.6
1637208260880,102.3278,-8.5981,1.5274
1637208260894,101.6333,-7.8535,1.6365
1637208260910,101.3661,-6.3289,1.2546
1637208260926,102.31,-7.1976,1.8183
1637208260942,102.3278,-6.9139,2.3638
1637208260956,102.399,-6.0984,-1.1273
1637208260972,101.6867,-7.3571,-1.8728
1637208260988,101.9894,-8.1549,0.2546
1637208261002,102.1141,-8.0308,1.7456
1637208261018,102.1141,-8.8108,-0.6
1637208261034,101.6867,-9.2895,-1.4728
1637208261048,99.1044,-8.3322,-0.4364
1637208261064,98.6236,-7.9244,-0.3273
1637208261080,99.1579,-8.0308,0.8364
1637208261094,100.7784,-7.889,0.6546
1637208261110,101.473,-7.694,0.891
1637208261126,101.6154,-7.3571,1.0546
1637208261140,102.2387,-8.6513,-0.9455
1637208261156,101.9182,-9.6441,0.2182
1637208261172,99.9949,-10.4418,-1.5637
1637208261186,100.9565,-9.0413,-3.6548
1637208261202,100.2264,-8.9349,-3.4366
1637208261218,100.5825,-8.3322,-1.6728
1637208261232,101.3839,-7.1799,-2.6365
1637208261248,101.8291,-7.8003,-1.9456
1637208261264,101.4552,-8.3676,-1.4546
1637208261278,101.0278,-9.0768,0.3455
1637208261294,101.1524,-8.6336,0.3273
1637208261310,100.1908,-8.7754,-0.7637
1637208261326,101.0456,-8.8463,-1.8183
1637208261340,101.6154,-9.2718,-3.3456
1637208261356,101.8648,-10.1582,-4.2366
1637208261372,101.7935,-10.1936,-5.0185
1637208261386,101.5086,-9.0058,-3.2002
1637208261402,101.099,-9.2186,-1.5092
1637208261418,100.4757,-7.8713,-3.3456
1637208261432,101.01,-6.7721,-3.4366
1637208261448,100.0305,-6.7544,-1.8365
1637208261464,100.9387,-7.1621,-2.8183
1637208261478,101.5976,-7.4103,-3.2365
1637208261494,102.2031,-7.5167,-3.4002
1637208261510,102.8977,-8.4386,-4.073
1637208261524,102.0785,-8.1904,-3.6911
1637208261540,101.0456,-8.3322,-2.4547
1637208261556,98.7127,-8.7754,-2.1092
1637208261570,98.9976,-8.6158,-1.491
1637208261586,100.1017,-7.6231,-3.182
1637208261602,100.7428,-8.1194,-4.4184
1637208261616,100.8319,-8.084,-4.0548
1637208261632,101.0456,-7.5167,-2.6001
1637208261648,100.5825,-10.1227,-2.3274
1637208261662,100.9565,-9.5731,-3.1093
1637208261678,101.4552,-7.7826,-2.9456
1637208261694,101.847,-6.843,-4.5639
1637208261710,101.2593,-8.0663,-4.3093
1637208261724,100.9743,-7.8535,-3.2547
1637208261740,100.173,-8.3499,-4.0548
1637208261756,100.8853,-8.279,-3.3275
1637208261770,100.7606,-7.0735,-3.3638
1637208261786,101.562,-6.6303,-5.5458
1637208261802,102.3812,-7.8003,-4.8003
1637208261816,101.4552,-8.3322,-5.1457
1637208261832,100.4935,-8.1549,-4.4184
1637208261848,101.2058,-8.2258,-4.1093
1637208261862,101.2949,-7.8358,-3.382
1637208261878,99.8524,-8.5981,-4.473
1637208261894,99.7099,-9.0058,-5.1094
1637208261908,100.2976,-9.0236,-3.8729
1637208261924,100.7072,-9.3604,-2.2001
1637208261940,100.9743,-8.3322,-1.8365
1637208261954,100.725,-8.5095,-3.4911
1637208261970,101.473,-8.7754,-4.4366
1637208261986,100.3688,-8.1726,-4.5639
1637208262000,100.9743,-7.5699,-3.4911
1637208262016,100.6716,-7.9422,-2.9274
1637208262032,100.9743,-7.1799,-2.4183
1637208262046,101.2771,-8.6867,-2.2547
1637208262062,101.3661,-9.6795,-1.5637
1637208262078,101.8291,-9.4313,-2.4183
1637208262094,101.7935,-8.7045,-3.5093
1637208262108,101.562,-8.0485,-3.7275
1637208262124,101.6333,-8.8463,-3.8911
1637208262140,102.4703,-6.2403,-4.9457
1637208262154,102.1319,-6.843,-5.0548
1637208262170,101.6867,-7.7649,-3.5093
1637208262186,102.3634,-7.9422,-2.6183
1637208262200,100.7072,-8.5449,-2.4911
1637208262216,99.5675,-8.1194,-1.9092
1637208262232,101.7045,-7.038,-3.9275
1637208262246,101.8826,-7.4103,-3.1275
1637208262262,100.4757,-8.3854,-3.9639
1637208262278,100.1373,-8.5804,-4.2002
1637208262292,100.6182,-8.2081,-4.0184
1637208262308,101.4017,-7.889,-3.2365
1637208262324,102.1675,-6.9317,-2.9638
1637208262338,102.025,-8.1372,-3.4911
1637208262354,101.3661,-7.7472,-2.982
1637208262370,100.7784,-6.8253,-1.9637
1637208262384,101.7401,-7.8535,-2.9456
1637208262400,101.4908,-8.5981,-3.8729
1637208262416,100.7428,-8.4563,-3.7275
1637208262430,100.5291,-9.449,-5.2367
1637208262446,100.0127,-9.6795,-5.0003
1637208262462,99.2291,-9.5022,-3.782
1637208262478,100.9031,-8.1194,-3.8729
1637208262492,100.6538,-7.8003,-4.3275
1637208262508,100.2976,-8.8108,-4.4184
1637208262524,100.6538,-8.5095,-3.0365
1637208262538,101.5442,-8.5095,-2.3638
1637208262554,100.0661,-9.0413,-2.3092
1637208262570,101.7223,-9.1299,-2.0365
1637208262584,102.6127,-9.5731,-1.7819
1637208262600,100.9565,-10.2114,-3.4366
1637208262616,101.7045,-10.2645,-3.982
1637208262630,101.473,-8.8463,-4.4003
1637208262646,101.4908,-8.4386,-3.4729
1637208262662,101.6154,-8.3676,-4.1275
1637208262676,101.7045,-10.1936,-3.2911
1637208262692,101.8291,-8.9349,-1.891
1637208262708,100.4223,-8.1194,-2.582
1637208262722,100.7428,-7.9422,-1.9092
1637208262738,102.0428,-7.9953,-2.3638
1637208262754,101.9004,-8.2435,-2.7274
1637208262768,101.2415,-8.1904,-2.2365
1637208262784,99.4072,-8.8286,-1.9092
1637208262800,99.2647,-7.9953,-1.9456
1637208262814,99.9058,-8.7754,-1.5455
1637208262830,100.725,-8.7222,-1.3092
1637208262846,101.2058,-8.4917,-0.4728
1637208262862,100.2264,-7.7117,0.2
1637208262876,101.3661,-7.3749,-2.4547
1637208262892,102.6305,-7.4103,-3.4729
1637208262908,103.4853,-7.0026,-2.2729
1637208262922,103.147,-7.4281,-1.8728
1637208262938,103.0936,-8.2967,-0.4909
1637208262954,103.3429,-8.4386,-1.2728
1637208262968,102.7908,-8.1372,-0.8364
1637208262984,102.4881,-7.5876,-0.9637
1637208263000,101.4017,-7.2508,-0.9819
1637208263014,100.6538,-7.3571,-1.4183
1637208263030,99.1401,-6.9849,-2.782
1637208263046,99.6921,-7.1444,-2.1274
1637208263060,101.0278,-8.1726,-1.2364
1637208263076,102.1319,-8.1017,-2.2001
1637208263092,101.099,-8.4386,-4.1821
1637208263106,101.473,-7.8535,-1.1455
1637208263122,100.7963,-7.6231,-2.8729
1637208263138,101.1524,-7.8713,-2.3092
1637208263152,101.4374,-8.3322,-1.0001
1637208263168,100.9921,-8.8995,-2.1092
1637208263184,101.3661,-7.5876,-3.382
1637208263198,101.4552,-7.5167,-2.5638
1637208263214,101.936,-8.7045,-2.1456
1637208263230,102.4168,-7.4281,-2.7638
1637208263246,102.4346,-6.7544,-2.7456
1637208263260,101.7579,-6.5948,-1.5274
1637208263276,102.025,-7.1621,-1.6728
1637208263292,101.0278,-7.9953,-3.4366
1637208263306,101.7935,-7.5167,-1.8728
1637208263322,101.5976,-7.3217,-2.6547
1637208263338,101.0812,-7.8713,-3.382
1637208263352,102.0428,-7.7117,-3.5093
1637208263368,100.7963,-7.5521,-2.7638
1637208263384,99.7277,-7.2685,-3.8548
1637208263398,99.7812,-6.0275,-3.7457
1637208263414,100.3332,-6.2048,-3.782
1637208263430,100.6538,-6.6657,-3.4911
1637208263444,100.7428,-7.3217,-4.0911
1637208263460,102.0607,-8.8286,-2.4911
1637208263476,101.6867,-8.5449,-2.1092
1637208263490,102.8798,-7.9422,-1.2001
1637208263506,102.3812,-7.304,-0.0545
1637208263522,100.9031,-7.0558,0.7273
1637208263536,101.0278,-5.7262,-1.7274
1637208263552,101.6511,-7.4812,-2.2729
1637208263568,101.01,-8.8108,-3.0911
1637208263582,101.8113,-6.2935,-1.6365
1637208263598,101.936,-7.1444,-0.6546
1637208263614,102.0607,-8.2258,-0.5091
1637208263630,101.8291,-8.669,-0.4
1637208263644,101.9182,-8.3854,-0.6909
1637208263660,101.0634,-7.2153,-1.7092
1637208263676,99.799,-8.1549,-0.9819
1637208263690,99.9949,-7.7826,-1.891
1637208263706,100.9031,-8.1726,-1.7456
1637208263722,101.1702,-8.3499,-2.3638
1637208263736,102.5237,-7.4103,-3.7275
1637208263752,102.025,-8.4386,-0.6
1637208263768,101.8826,-8.5804,-1.7456
1637208263782,103.4675,-7.8181,-2.3456
1637208263798,103.236,-7.5167,-2.982
1637208263814,102.3634,-7.499,-2.6729
1637208263828,101.9538,-6.7544,-2.0001
1637208263844,102.025,-7.2153,-2.1819
1637208263860,101.7579,-8.4917,-2.0547
1637208263874,100.7428,-8.7931,-1.3273
1637208263890,100.1373,-7.7826,-1.2546
1637208263906,100.4935,-7.1444,-2.7456
1637208263920,101.6689,-7.2508,-2.2183
1637208263936,101.6867,-8.6513,-2.3456
1637208263952,101.5086,-8.474,-2.2001
1637208263966,100.4935,-8.2258,-3.5638
1637208263982,102.2387,-8.4386,-1.8728
1637208263998,101.7045,-7.8358,-3.9457
1637208264014,101.0634,-9.4845,-4.5275
1637208264028,101.7045,-10.5659,-3.4184
1637208264044,102.0428,-8.7931,-2.5274
1637208264060,100.2442,-8.0131,-2.8911
1637208264074,99.6031,-8.3145,-2.1819
1637208264090,99.6031,-8.2081,-3.2911
1637208264106,101.2415,-7.6231,-3.0002
1637208264120,100.6538,-6.5239,-2.4547
1637208264136,100.5647,-5.6552,-2.5274
1637208264152,99.1579,-7.8358,-2.0365
1637208264166,99.4962,-9.7682,-2.3456
1637208264182,101.1168,-8.3499,-2.6547
1637208264198,100.8497,-8.1549,-3.4729
1637208264212,101.1168,-8.6158,-2.5638
1637208264228,101.2771,-6.7544,-4.1275
1637208264244,101.3483,-6.3466,-3.6729
1637208264258,101.0634,-7.4458,-2.982
1637208264274,101.6689,-6.6657,-2.6365
1637208264290,101.6333,-7.038,-3.6548
1637208264304,101.2771,-7.9953,-2.2183
1637208264320,100.9921,-7.3217,-1.691
1637208264336,100.9921,-7.8003,-2.3638
1637208264350,101.3127,-7.0558,-1.1092
1637208264366,101.01,-7.6231,-2.4547
1637208264382,100.3332,-7.0912,-3.5638
1637208264398,99.4428,-7.4103,-2.4001
1637208264412,99.5853,-6.843,-2.2001
1637208264428,100.4757,-6.4885,-2.9638
1637208264444,101.473,-6.8608,-3.1456
1637208264458,101.9894,-7.5699,-1.8728
1637208264474,101.8648,-7.2508,-2.2183
1637208264490,100.6538,-8.2258,-3.4911
1637208264504,100.3154,-7.6585,-2.8365
1637208264520,100.5113,-7.3926,-3.0729
1637208264536,100.636,-7.4281,-2.8365
1637208264550,101.9538,-7.304,-3.8548
1637208264566,102.1319,-7.9067,-3.3093
1637208264582,102.9867,-8.2967,-2.0365
1637208264596,103.3429,-8.1017,-3.6002
1637208264612,102.4168,-6.3644,-2.6183
1637208264628,101.3483,-4.9993,-3.4366
1637208264642,100.2442,-4.5916,-3.9639
1637208264658,101.2415,-6.0453,-4.2002
1637208264674,102.1319,-8.1726,-5.1276
1637208264688,101.562,-7.0558,-3.6548
1637208264704,100.9031,-7.4458,-2.782
1637208264720,99.8702,-9.3959,-1.8365
1637208264734,100.173,-8.4917,-2.3638
1637208264750,100.6004,-7.9776,-3.1638
1637208264766,100.262,-7.1799,-1.491
1637208264782,101.0634,-6.5416,-1.7637
1637208264796,102.8264,-7.8713,-1.291
1637208264812,101.562,-8.0663,0.2
1637208264828,101.6511,-7.2685,-0.7637
1637208264842,102.7374,-7.5699,-3.6548
1637208264858,102.6483,-8.9172,-3.182
1637208264874,102.3812,-7.8713,-3.4547
1637208264888,101.847,-7.4103,-2.8365
1637208264904,100.9921,-6.8608,-1.6365
1637208264920,100.9031,-6.8076,-1.5274
1637208264934,101.1524,-7.3749,-2.1456
1637208264950,100.636,-8.7931,-0.7819
1637208264966,100.1017,-10.0695,-0.4
1637208264980,100.3688,-8.8995,-0.0909
1637208264996,100.4935,-7.6762,-0.0727
1637208265012,100.4579,-7.4635,-0.1636
1637208265026,100.5647,-7.9422,-2.6547
1637208265042,101.473,-7.0735,-2.5456
1637208265058,102.0785,-7.8003,-1.7819
1637208265072,103.3607,-8.1904,0.3818
1637208265088,102.025,-9.4136,-0.2182
1637208265104,101.5086,-8.9881,-2.3274
1637208265118,100.9387,-7.0735,-2.0728
1637208265134,100.9031,-5.9744,-2.4365
1637208265150,101.6154,-5.9744,-3.4547
1637208265166,101.6333,-7.0735,-2.6001
1637208265180,100.5825,-7.5876,-1.3273
1637208265196,100.3867,-7.3394,-1.6728
1637208265212,101.1346,-7.9244,-0.2909
1637208265226,100.4401,-7.5521,-1.7274
1637208265242,101.0456,-6.063,-2.8002
1637208265258,102.0963,-6.4176,-3.1275
1637208265272,101.2771,-7.0203,-2.4001
1637208265288,102.025,-7.7472,-1.1092
1637208265304,101.9182,-8.5095,0.3637
1637208265318,101.9716,-7.7472,0.2909
1637208265334,100.9209,-8.3676,-0.6728
1637208265350,100.8675,-7.7472,-1.4001
1637208265364,100.9209,-8.2258,-1.691
1637208265380,101.4374,-6.6126,-1.0364
1637208265396,101.3661,-6.8608,-1.1455
1637208265410,101.6333,-8.0485,-2.0547
1637208265426,101.8648,-7.9067,-1.5455
1637208265442,100.4045,-7.1976,-1.491
1637208265456,101.5264,-5.8148,-1.291
1637208265472,101.01,-7.499,-1.1637
1637208265488,100.6716,-7.499,-0.4182
1637208265502,101.7579,-7.4635,-1.5637
1637208265518,103.147,-7.5344,-2.1456
1637208265534,102.2387,-7.3217,-1.7456
1637208265550,100.2798,-7.4635,-1.1819
1637208265564,97.9291,-8.1194,-0.5455
1637208265580,99.1044,-10.0341,-0.3818
1637208265596,100.7784,-9.2718,-0.4546
1637208265610,102.3634,-7.8003,-0.0727
1637208265626,101.5442,-7.3749,-2.091
1637208265642,101.7045,-6.5948,-3.6184
1637208265656,101.4195,-6.8253,-2.6911
1637208265672,101.7401,-6.7367,-1.5455
1637208265688,101.3127,-7.2508,-0.8182
1637208265702,101.6154,-7.8535,-1.5819
1637208265718,101.9004,-8.3676,-0.7819
1637208265734,101.0812,-8.8286,0.0182
1637208265748,101.2771,-6.3998,-1.9092
1637208265764,100.636,-6.8608,-2.3274
1637208265780,100.351,-7.2508,-1.291
1637208265794,100.2976,-6.0984,-0.9273
1637208265810,100.5113,-6.5594,-0.7819
1637208265826,100.9031,-6.8962,-1.4728
1637208265840,101.1524,-6.6657,-1.4728
1637208265856,100.725,-8.0663,-1.6001
1637208265872,100.725,-7.5876,-0.3273
1637208265886,101.1702,-6.8076,-1.4183
1637208265902,101.8648,-7.6053,-0.4909
1637208265918,102.7908,-6.3289,-0.0727
1637208265934,101.9716,-6.4353,-0.6
1637208265948,100.2264,-6.7721,-1.691
1637208265964,100.7606,-6.5239,-1.9092
1637208265980,101.9894,-6.3998,-3.7457
1637208265994,101.3127,-7.038,-3.7457
1637208266010,100.6004,-6.9494,-3.1275
1637208266026,100.5469,-7.304,-2.0728
1637208266040,101.2771,-7.1621,-1.3819
1637208266056,102.8442,-6.5594,-2.4001
1637208266072,101.847,-7.2685,-1.3819
1637208266086,102.0963,-7.6762,-0.3273
1637208266102,102.5593,-7.1267,-0.9637
1637208266118,101.8291,-6.7544,-1.1092
1637208266132,101.5086,-6.9494,-0.6182
1637208266148,101.01,-6.7544,-0.3273
1637208266164,100.4045,-6.6126,-1.4001
1637208266178,100.9209,-6.6303,-0.3455
1637208266194,102.31,-4.7688,-3.0365
1637208266210,102.5059,-5.6198,-3.6366
1637208266224,102.1675,-6.1516,-2.6183
1637208266240,102.025,-6.258,-2.982
1637208266256,101.7045,-5.868,-1.6365
1637208266270,101.7401,-5.9921,-1.6183
1637208266286,101.7401,-6.2935,-2.4365
1637208266302,101.6333,-5.8148,-1.1273
1637208266318,101.1168,-6.1516,-0.4182
1637208266332,101.847,-5.7084,-1.3637
1637208266348,103.3785,-5.7793,-1.4183
1637208266364,102.1675,-5.6907,-1.1092
1637208266378,102.5237,-4.0775,-2.0001
1637208266394,103.7881,-5.6198,-2.9093
1637208266410,102.0607,-6.8253,-1.1092
1637208266424,100.0127,-6.0453,0.3455
1637208266440,100.6894,-6.1162,-1.2001
1637208266456,100.7428,-6.3112,-2.2183
1637208266470,99.7634,-6.1339,-2.1274
1637208266486,99.8702,-5.3361,-1.491
1637208266502,99.888,-5.9034,-2.0001
1637208266516,101.1346,-6.8962,-0.8728
1637208266532,100.5113,-7.0026,-1.6183
1637208266548,101.6511,-5.5134,-2.6911
1637208266562,101.6154,-6.0807,-1.491
1637208266578,102.4524,-6.6657,-0.8182
1637208266594,102.4881,-7.3749,0.1091
1637208266608,102.0607,-7.2685,-0.3818
1637208266624,101.7223,-6.4353,-0.3273
1637208266640,101.847,-6.1162,-0.9819
1637208266654,100.9743,-6.5239,-0.6
1637208266670,101.01,-7.4635,-0.5637
1637208266686,101.2415,-6.9494,-1.0546
1637208266702,101.3305,-6.2225,-1.5274
1637208266716,100.9743,-6.3466,-3.4184
1637208266732,100.5825,-5.9212,-2.5638
1637208266748,99.799,-6.9139,-2.4365
1637208266762,101.1524,-6.5062,-1.9637
1637208266778,101.1702,-8.1726,-1.4364
1637208266794,100.6182,-7.7826,-2.3638
1637208266808,100.5469,-7.2685,0.7819
1637208266824,101.01,-7.7294,-0.7273
1637208266840,101.6689,-7.5521,-1.6001
1637208266854,100.7072,-7.5167,0.4182
1637208266870,101.8826,-7.6585,-0.7819
1637208266886,103.0579,-7.1089,-4.2366
1637208266900,103.2182,-7.0203,-2.4911
1637208266916,102.6483,-6.7721,-1.4728
1637208266932,102.8442,-7.6585,-0.8
1637208266946,102.5593,-8.5804,-0.7273
1637208266962,102.4703,-8.8995,-0.6364
1637208266978,101.8291,-7.6231,-0.6728
1637208266992,101.9538,-7.0026,-0.4
1637208267008,101.8113,-6.2048,0.7819
1637208267024,101.4017,-7.2508,1.4001
1637208267038,101.2237,-6.9139,0.4909
1637208267054,100.1551,-7.4458,-0.6
1637208267070,100.173,-6.5062,-1.4183
1637208267086,101.3661,-6.8962,0.6728
1637208267100,100.636,-8.2258,0.5637
1637208267116,101.9716,-6.8785,0.7455
1637208267132,102.0072,-7.2508,0.5091
1637208267146,101.7757,-8.9172,0.9273
1637208267162,102.8086,-9.7859,0.2182
1637208267178,103.61,-8.5272,0.7091
1637208267192,102.5771,-9.9632,0.7455
1637208267208,101.4374,-10.495,0.7637
1637208267224,101.9894,-9.2363,0.6909
1637208267238,101.2771,-8.7577,1.8547
1637208267254,100.1373,-8.9172,0.7819
1637208267270,100.3867,-8.5626,0.7455
1637208267284,100.6538,-8.2435,0.8546
1637208267300,99.6031,-8.3322,0.7455
1637208267316,98.9976,-8.8995,0.2727
1637208267330,99.3181,-8.7045,0.5637
1637208267346,101.188,-8.3854,1.3819
1637208267362,100.8319,-9.0058,-0.1273
1637208267376,102.8977,-9.7504,1.5637
1637208267392,103.6278,-10.9914,2.6001
1637208267408,103.984,-11.4523,2.5638
1637208267422,103.0045,-12.1437,1.9637
1637208267438,101.6689,-10.5659,1.491
1637208267454,100.725,-10.2114,1.0364
1637208267470,100.3688,-10.1404,-0.1818
1637208267484,101.0278,-8.5272,0.0545
1637208267500,100.3867,-8.2613,1.8183
1637208267516,100.4223,-8.2613,1.8728
1637208267530,100.351,-10.0518,1.1273
1637208267546,100.1551,-9.6086,0.8546
1637208267562,100.4579,-8.6336,-1.7092
1637208267576,101.6867,-8.3145,-1.4546
1637208267592,102.2031,-9.3604,0.0727
1637208267608,102.9155,-9.8745,0.0182
1637208267622,103.8415,-9.2186,1.491
1637208267638,103.0045,-10.7077,1.2001
1637208267654,101.6511,-10.3886,0.5273
1637208267668,101.5086,-10.1936,0.7455
1637208267684,100.0661,-9.254,0.6
1637208267700,99.1579,-10.0341,1.291
1637208267714,99.9771,-8.3499,1.291
1637208267730,101.099,-7.889,0.1273
1637208267746,101.0456,-9.6086,-0.7637
1637208267760,101.7757,-11.0268,0.9455
1637208267776,101.2058,-11.1687,2.3638
1637208267792,100.7784,-10.5127,1.6365
1637208267806,101.5976,-9.5377,2.2547
1637208267822,102.1319,-9.5909,1.9274
1637208267838,101.4195,-9.8568,1.2001
1637208267854,101.1524,-9.0768,0.6546
1637208267868,101.3483,-9.5377,0.4546
1637208267884,101.4195,-10.2114,-0.0182
1637208267900,101.4908,-9.9632,0.9273
1637208267914,101.7401,-10.0341,1.2364
1637208267930,102.5415,-8.3145,1.9637
1637208267946,102.773,-7.6762,2.9638
1637208267960,102.2209,-8.1194,1.1455
1637208267976,100.6182,-9.8923,-0.2
1637208267992,99.6031,-10.9382,0.4909
1637208268006,99.799,-11.2928,0.9819
1637208268022,100.262,-12.1969,0.4364
1637208268038,100.2976,-10.9382,0.7091
1637208268052,100.8141,-9.4668,1.2728
1637208268068,101.6511,-10.8496,2.1092
1637208268084,100.8497,-12.3033,1.3455
1637208268098,100.4401,-12.0373,1.6546
1637208268114,100.8319,-12.1437,2.7274
1637208268130,100.9565,-10.7787,2.1274
1637208268144,101.1524,-10.105,2.4001
1637208268160,101.2593,-10.6368,2.8002
1637208268176,100.173,-10.5659,0.6182
1637208268190,100.3332,-9.5909,1.8001
1637208268206,99.7455,-9.9454,3.3638
1637208268222,99.7634,-10.0695,3.6548
1637208268238,99.3003,-11.6296,2.9093
1637208268252,100.262,-11.8069,2.2001
1637208268268,101.3305,-11.3105,0.3637
1637208268284,100.725,-10.7432,0
1637208268298,100.9209,-12.2678,1.8183
1637208268314,101.0812,-14.0229,4.3275
1637208268330,100.9743,-14.3597,3.5638
1637208268344,101.188,-13.1365,4.2002
1637208268360,101.2949,-12.4274,3.1093
1637208268376,99.9593,-11.47,2.1456
1637208268390,100.4757,-9.91,2.9638
1637208268406,100.8853,-10.0873,2.7092
1637208268422,101.5264,-11.0623,3.0184
1637208268436,101.8826,-11.5055,4.473
1637208268452,102.6305,-12.2501,2.9638
1637208268468,103.0579,-11.3814,1.2546
1637208268482,101.5798,-11.7714,2.7638
1637208268498,100.7784,-11.0978,4.5275
1637208268514,101.4195,-11.5941,3.7457
1637208268528,101.1346,-11.8423,3.0002
1637208268544,101.6867,-11.4878,3.2729
1637208268560,101.2058,-11.8778,4.273
1637208268574,100.1373,-12.321,4.6912
1637208268590,100.2086,-10.7255,4.0184
1637208268606,101.4017,-10.6014,4.0366
1637208268622,100.3332,-11.0091,4.0366
1637208268636,99.2291,-10.6014,4.5275
1637208268652,100.351,-10.8318,3.0911
1637208268668,101.0634,-11.2219,3.8184
1637208268682,101.0278,-11.1155,3.8548
1637208268698,100.8853,-11.8423,2.7638
1637208268714,101.4195,-12.126,3.7457
1637208268728,100.3688,-12.2855,3.6184
1637208268744,99.3538,-12.3387,2.9638
1637208268760,100.1017,-11.1509,3.6548
1637208268774,100.7072,-10.1404,3.5457
1637208268790,100.6538,-10.2114,3.8002
1637208268806,100.6894,-9.4668,3.8366
1637208268820,101.2058,-9.0413,5.5276
1637208268836,101.7935,-10.8673,6.2004
1637208268852,102.0072,-11.8246,5.4912
1637208268866,102.1497,-11.9664,5.2548
1637208268882,102.1675,-11.3637,3.5275
1637208268898,100.8141,-11.3105,4.6003
1637208268912,100.5647,-11.346,4.473
1637208268928,102.0607,-11.9132,4.7821
1637208268944,101.2237,-12.2146,5.0912
1637208268958,101.2949,-11.4523,5.0367
1637208268974,100.7072,-9.9277,3.5093
1637208268990,100.1373,-10.7255,2.2729
1637208269006,100.8141,-10.6546,3.4911
1637208269020,102.5771,-10.9205,4.6003
1637208269036,102.5237,-11.1332,4.073
1637208269052,101.7045,-11.6651,4.1821
1637208269066,101.3127,-11.7892,5.1276
1637208269082,100.0127,-11.3282,5.2185
1637208269098,99.425,-9.8745,3.5638
1637208269112,99.9236,-10.3177,4.1275
1637208269128,100.1195,-10.6191,5.2548
1637208269144,101.1346,-10.6014,5.473
1637208269158,101.099,-10.5127,6.3276
1637208269174,101.9538,-11.4523,4.9639
1637208269190,102.1319,-12.3742,6.2185
1637208269204,101.8291,-11.6651,6.2004
1637208269220,102.5949,-11.931,5.6912
1637208269236,102.2031,-12.126,5.4185
1637208269250,101.5798,-12.126,6.7458
1637208269266,100.6182,-11.8601,7.2186
1637208269282,100.4579,-10.8496,4.873
1637208269296,100.7428,-9.91,4.9821
1637208269312,100.3154,-10.105,5.4549
1637208269328,101.3483,-10.5659,5.4549
1637208269342,102.2209,-10.69,4.8912
1637208269358,102.9689,-9.6086,5.6185
1637208269374,102.1319,-9.254,4.7275
1637208269390,101.6511,-10.1936,4.3457
1637208269404,101.2058,-11.2928,6.4731
1637208269420,100.7428,-11.931,5.1094
1637208269436,100.4757,-11.9664,4.0911
1637208269450,101.1168,-9.5554,4.6366
1637208269466,101.6333,-9.7504,4.9821
1637208269482,101.5976,-10.7964,5.4185
1637208269496,100.8141,-10.4064,5.1821
1637208269512,100.7784,-11.0623,4.5275
1637208269528,100.4401,-10.9027,3.4911
1637208269542,99.7812,-10.8141,4.1275
1637208269558,100.0661,-10.69,6.0367
1637208269574,100.3332,-10.8318,4.6003
1637208269588,101.4195,-9.0058,4.1821
1637208269604,100.9387,-9.8923,5.8549
1637208269620,99.5318,-11.275,5.2003
1637208269634,99.6209,-10.1936,5.5821
1637208269650,99.799,-10.4241,6.0913
1637208269666,100.0127,-10.3,3.9093
1637208269680,101.188,-10.2823,2.1819
1637208269696,101.9004,-9.059,2.3092
1637208269712,102.4168,-8.9704,3.582
1637208269726,102.6661,-10.6191,4.3457
1637208269742,102.8977,-10.7609,4.5093
1637208269758,101.4374,-11.3282,4.6548
1637208269774,101.5264,-10.3886,4.3275
1637208269788,101.6867,-10.5482,5.3821
1637208269804,102.1853,-11.08,4.4003
1637208269820,101.0634,-10.8496,4.8366
1637208269834,101.4374,-9.8923,5.6185
1637208269850,100.8141,-10.5659,5.3458
1637208269866,101.1524,-9.8568,3.582
1637208269880,101.3127,-9.6086,4.9457
1637208269896,100.9387,-10.3355,4.7094
1637208269912,100.7606,-9.9986,3.2365
1637208269926,100.2264,-10.9382,3.4547
1637208269942,100.7428,-10.6723,3.2911
1637208269958,101.2415,-10.1759,2.8547
1637208269972,101.1524,-8.8463,2.6911
1637208269988,100.8319,-9.1477,2.7274
1637208270004,101.2058,-11.0446,3.7639
1637208270018,102.8442,-11.1864,4.7094
1637208270034,102.2387,-10.6723,5.9094
1637208270050,101.7579,-11.3282,5.5094
1637208270064,101.6333,-10.3709,4.7094
1637208270080,101.5976,-9.8745,4.9094
1637208270096,101.1702,-9.0945,4.2002
1637208270110,100.7784,-9.3959,3.782
1637208270126,100.5291,-9.6795,3.0911
1637208270142,101.3661,-10.0873,3.0184
1637208270158,101.847,-10.9382,3.5457
1637208270172,102.5059,-10.3355,3.382
1637208270188,102.3456,-9.3072,3.8002
1637208270204,102.5237,-10.7964,3.0365
1637208270218,102.1675,-10.1582,4.0366
1637208270234,101.4552,-10.2645,3.6184
1637208270250,100.725,-9.8923,4.7457
1637208270264,101.0634,-10.495,4.3821
1637208270280,101.4908,-9.2009,4.8912
1637208270296,100.5647,-9.4668,5.6185
1637208270310,101.2237,-10.0341,4.3639
1637208270326,100.6004,-10.1582,4.8366
1637208270342,100.5469,-9.1477,4.9457
1637208270356,100.7606,-9.5731,3.2729
1637208270372,101.8291,-9.8745,2.0001
1637208270388,101.6333,-8.7222,2.4547
1637208270402,102.684,-9.5731,2.6001
1637208270418,102.2387,-10.7255,4.3821
1637208270434,102.5771,-11.2041,4.3275
1637208270448,101.8826,-10.4064,4.0911
1637208270464,101.0634,-10.3355,4.2002
1637208270480,100.5469,-10.4595,4.6184
1637208270494,100.636,-9.254,5.2548
1637208270510,100.5469,-9.6263,5.1094
1637208270526,100.351,-9.0236,3.2729
1637208270542,100.7606,-10.0518,4.1093
1637208270556,101.188,-9.1831,2.8911
1637208270572,101.5976,-8.5626,5.564
1637208270588,100.7606,-9.6441,7.0549
1637208270602,101.5264,-9.4845,5.8912
1637208270618,101.5442,-8.5272,5.6185
1637208270634,102.0072,-9.5731,3.4002
1637208270648,101.9004,-9.3427,3.4002
1637208270664,101.8113,-9.6086,4.7275
1637208270680,101.9182,-8.9349,5.0367
1637208270694,101.7935,-10.3355,5.0367
1637208270710,101.6867,-10.0341,4.273
1637208270726,101.6154,-9.3959,4.9821
1637208270740,101.5086,-9.91,5.1457
1637208270756,100.6004,-9.7859,5.4367
1637208270772,101.5442,-10.2114,4.1639
1637208270786,101.2771,-9.4136,4.4548
1637208270802,101.3661,-9.9986,3.5275
1637208270818,100.7784,-10.1759,3.4729
1637208270832,100.8497,-9.9277,3.6729
1637208270848,100.6004,-9.8213,3.1093
1637208270864,100.173,-10.5836,3.4366
1637208270878,101.5442,-9.6795,6.0731
1637208270894,101.936,-9.3072,4.9276
1637208270910,102.4881,-9.7327,3.8729
1637208270926,101.099,-9.3781,3.0729
1637208270940,101.3305,-10.1227,4.1821
1637208270956,102.31,-9.7504,4.3821
1637208270972,101.4374,-9.7682,5.3458
1637208270986,100.9209,-10.3709,3.4547
1637208271002,101.2415,-10.2291,4.7821
1637208271018,101.2058,-9.2895,4.6366
1637208271032,100.8319,-8.9172,6.2367
1637208271048,100.5647,-9.1477,7.164
1637208271064,101.2949,-9.254,4.4912
1637208271078,100.8853,-7.9244,2.3274
1637208271094,100.9565,-7.5876,2.982
1637208271110,101.2058,-7.9422,4.6184
1637208271124,101.7757,-8.7931,5.0548
1637208271140,101.3483,-9.4845,5.7094
1637208271156,102.2387,-8.3322,5.4367
1637208271170,101.9894,-8.5804,4.873
1637208271186,101.3839,-10.0518,5.0912
1637208271202,100.6716,-9.0945,5.8912
1637208271216,101.4195,-9.6972,4.6184
1637208271232,101.7935,-8.864,5.4912
1637208271248,100.9387,-9.5909,4.9639
1637208271262,100.636,-9.3427,3.9457
1637208271278,101.5976,-9.1831,3.4184
1637208271294,102.3278,-8.6513,4.1821
1637208271310,102.0072,-8.7045,5.7094
1637208271324,102.0785,-8.7754,5.1821
1637208271340,102.2922,-8.474,5.1821
1637208271356,101.473,-8.2258,4.5639
1637208271370,100.7606,-8.279,4.7275
1637208271386,100.9921,-9.1299,3.5638
1637208271402,101.01,-8.4208,4.1275
1637208271416,101.9894,-8.2258,4.6184
1637208271432,101.4552,-9.254,4.0548
1637208271448,100.9387,-10.105,5.8549
1637208271462,100.636,-8.864,4.0911
1637208271478,100.3867,-8.669,3.4911
1637208271494,100.0661,-8.3676,4.2184
1637208271508,100.7963,-8.5981,5.9822
1637208271524,101.6333,-8.7045,4.5821
1637208271540,101.8113,-8.8463,4.3639
1637208271554,101.7579,-8.864,5.6003
1637208271570,101.2237,-9.3427,4.7275
1637208271586,101.4017,-9.4136,4.6912
1637208271600,101.3305,-9.059,4.4003
1637208271616,100.9921,-9.0768,5.273
1637208271632,99.6565,-9.2186,4.2912
1637208271646,100.725,-8.4563,4.7275
1637208271662,100.6182,-8.3676,4.6912
1637208271678,101.0456,-9.0413,4.3639
1637208271694,100.3332,-10.4241,4.4912
1637208271708,100.8141,-9.9454,4.3821
1637208271724,100.5825,-9.2186,2.7456
1637208271740,100.0305,-8.2613,3.9639
1637208271754,101.3305,-7.9953,5.0003
1637208271770,102.7374,-9.5731,6.4367
1637208271786,102.0785,-9.6086,6.9277
1637208271800,101.5264,-9.8923,6.3822
1637208271816,101.9182,-7.889,3.2365
1637208271832,101.7401,-7.6762,3.182
1637208271846,102.0072,-7.9067,4.273
1637208271862,101.6511,-8.1549,4.4003
1637208271878,102.2744,-9.1299,4.5639
1637208271892,101.936,-9.5022,5.2003
1637208271908,101.6689,-8.7931,5.564
1637208271924,100.5647,-8.2967,5.1457
1637208271938,100.5291,-7.6231,4.673
1637208271954,100.4045,-8.3499,5.473
1637208271970,101.7401,-8.6158,4.8366
1637208271984,101.847,-9.3427,6.2913
1637208272000,102.5059,-8.7754,5.2367
1637208272016,103.3251,-9.1122,4.1639
1637208272030,101.9716,-8.5981,4.9821
1637208272046,101.7401,-8.4031,6.6913
1637208272062,101.6689,-9.1831,4.5457
1637208272078,102.0963,-8.864,4.1821
1637208272092,101.5798,-8.3145,4.7821
1637208272108,100.8497,-8.7931,4.3457
1637208272124,101.0278,-8.9349,4.1639
1637208272138,101.1168,-9.449,4.6184
1637208272154,101.0278,-10.0695,4.9639
1637208272170,101.2593,-9.0768,5.8731
1637208272184,101.3305,-9.2363,5.073
1637208272200,101.7757,-8.0131,5.4549
1637208272216,101.5976,-9.6795,3.9639
1637208272230,102.2565,-10.7787,4.2184
1637208272246,102.1497,-9.2009,4.9094
1637208272262,101.7757,-7.7649,4.6366
1637208272276,101.7223,-7.2685,5.6731
1637208272292,101.0278,-8.2613,6.0367
1637208272308,101.7757,-10.0163,5.4185
1637208272322,103.2004,-10.2114,5.6731
1637208272338,102.0607,-8.9349,6.2004
1637208272354,101.8113,-8.5804,4.3093
1637208272368,101.5798,-8.9704,3.3638
1637208272384,101.2415,-8.8286,4.3639
1637208272400,100.9921,-9.1654,4.3457
1637208272414,101.3127,-9.449,3.1093
1637208272430,100.9387,-9.7682,2.1819
1637208272446,101.6154,-9.52,2.8547
1637208272462,100.7072,-9.1122,2.8911
1637208272476,101.8648,-8.5095,3.2365
1637208272492,101.5798,-8.8463,5.1457
1637208272508,102.1675,-7.6585,4.3639
1637208272522,100.4401,-7.8535,4.2002
1637208272538,99.6921,-8.4917,5.2185
1637208272554,100.9387,-7.9244,4.1093
1637208272568,102.31,-8.4563,2.7092
1637208272584,102.2565,-8.8995,1.8728
1637208272600,102.7018,-8.7577,3.3275
1637208272614,102.6127,-9.3427,5.2003
1637208272630,101.7579,-9.1654,5.1639
1637208272646,101.3483,-10.3709,3.8002
1637208272660,101.6511,-9.5554,4.2002
1637208272676,100.5647,-8.474,4.8003
1637208272692,100.0661,-8.2613,3.6366
1637208272706,100.6182,-9.059,3.7093
1637208272722,100.9565,-9.4313,3.8548
1637208272738,100.4045,-8.9881,4.7457
1637208272752,102.1853,-7.7649,4.273
1637208272768,103.147,-9.059,4.6003
1637208272784,102.2565,-9.254,6.1458
1637208272798,101.7223,-9.0058,5.273
1637208272814,101.562,-8.084,4.8366
1637208272830,101.5798,-8.8463,4.0548
1637208272846,100.1017,-9.0236,2.6729
1637208272860,100.3154,-8.7222,2.6183
1637208272876,100.636,-9.0236,4.3275
1637208272892,100.8319,-9.2895,4.873
1637208272906,101.3127,-9.5377,4.4548
1637208272922,101.4195,-7.8535,5.6003
1637208272938,100.8853,-7.3394,4.5821
1637208272952,101.3661,-8.2258,4.7457
1637208272968,101.7401,-9.0058,4.1275
1637208272984,101.6867,-9.1122,3.7093
1637208272998,101.4195,-9.2895,4.8548
1637208273014,101.8291,-8.6158,5.5276
1637208273030,100.1373,-8.9172,3.3456
1637208273044,100.1195,-8.7754,3.8729
1637208273060,100.6182,-7.6585,5.0367
1637208273076,101.0278,-8.3854,4.7457
1637208273090,101.473,-8.2081,4.6366
1637208273106,101.4552,-8.1017,3.4547
1637208273122,101.5798,-9.1122,2.3638
1637208273136,100.8675,-9.2895,3.982
1637208273152,100.6182,-9.1477,4.0911
1637208273168,101.0456,-9.2895,3.0002
1637208273182,101.8113,-7.8358,2.2729
1637208273198,101.4195,-8.1017,4.273
1637208273214,100.5113,-8.9349,3.3275
1637208273230,100.5469,-8.5804,3.582
1637208273244,99.2469,-8.9527,4.6912
1637208273260,99.888,-8.6158,3.0002
1637208273276,101.5264,-8.0308,2.5456
1637208273290,102.7908,-8.0308,3.8366
1637208273306,102.9511,-9.6972,4.5821
1637208273322,101.562,-10.495,4.4548
1637208273336,102.0963,-9.5909,4.1639
1637208273352,101.4195,-8.6513,3.2002
1637208273368,100.5647,-9.4845,3.2002
1637208273382,100.8853,-8.5804,4.4003
1637208273398,100.6894,-8.474,3.4547
1637208273414,100.5291,-8.3854,3.6366
1637208273428,100.5647,-9.059,3.9275
1637208273444,101.2415,-8.0485,4.9639
1637208273460,102.3812,-8.0131,4.4003
1637208273474,102.4881,-7.8535,5.0185
1637208273490,101.7045,-8.6158,5.964
1637208273506,101.7223,-8.2613,4.2548
1637208273520,103.1292,-8.1904,3.9457
1637208273536,101.7757,-8.4386,4.1275
1637208273552,101.01,-8.279,3.4547
1637208273566,102.0072,-8.6513,4.2912
1637208273582,101.8826,-7.8181,4.673
1637208273598,101.1346,-8.4208,4.4184
1637208273614,101.4374,-8.8818,4.3275
1637208273628,101.562,-8.2081,4.7821
1637208273644,101.6154,-8.084,4.3821
1637208273660,101.2771,-7.8535,3.8366
1637208273674,101.8291,-8.1017,4.3639
1637208273690,101.7757,-9.0236,4.8003
1637208273706,102.025,-7.3926,5.4367
1637208273720,101.8648,-7.1621,5.0003
1637208273736,100.2442,-8.6336,4.3275
1637208273752,101.7045,-8.1549,3.7275
1637208273766,102.1319,-7.7294,3.7639
1637208273782,102.0607,-7.4103,5.0185
1637208273798,100.8319,-8.7577,4.9457
1637208273812,100.8853,-9.3072,5.6731
1637208273828,100.5647,-9.2363,5.273
1637208273844,100.5647,-9.6441,5.1094
1637208273858,101.936,-9.5731,4.9094
1637208273874,101.5798,-9.5022,4.1093
1637208273890,101.9716,-9.5554,5.1457
1637208273904,102.4524,-8.9881,6.2731
1637208273920,101.7579,-8.4208,5.3094
1637208273936,101.01,-8.2967,4.1639
1637208273950,100.9031,-7.5521,5.2003
1637208273966,100.5647,-8.084,5.6367
1637208273982,100.9743,-8.5272,5.764
1637208273998,101.01,-9.0413,5.6367
1637208274012,101.5976,-8.7577,5.1457
1637208274028,102.025,-8.279,4.273
1637208274044,101.4195,-8.0308,4.0548
1637208274058,101.6333,-7.4103,4.2548
1637208274074,101.4195,-8.8108,4.4184
1637208274090,101.5976,-9.6618,5.1821
1637208274104,101.847,-9.3072,4.8003
1637208274120,102.3456,-9.5377,5.8731
1637208274136,101.473,-8.9704,6.0913
1637208274150,100.8319,-8.8463,5.9822
1637208274166,100.6182,-9.2009,5.0548
1637208274182,100.8853,-8.6867,5.8367
1637208274196,101.6867,-9.2895,6.6367
1637208274212,102.025,-8.8286,5.564
1637208274228,101.2593,-8.7754,3.7639
1637208274242,101.1168,-8.2435,4.3093
1637208274258,101.3127,-8.4563,7.5277
1637208274274,101.2949,-9.0945,5.6912
1637208274288,101.7223,-9.2009,4.0184
1637208274304,101.4017,-8.1549,3.982
1637208274320,101.9538,-7.889,4.0184
1637208274334,101.3483,-8.5804,4.4548
1637208274350,101.2771,-9.449,5.3458
1637208274366,100.3332,-10.0873,4.473
1637208274382,101.1346,-9.449,3.3456
1637208274396,100.7963,-9.9454,2.8547
1637208274412,101.3661,-10.105,3.8911
1637208274428,101.7935,-8.7754,4.7275
1637208274442,102.3812,-8.7222,4.3821
1637208274458,101.6511,-7.9599,3.4911
1637208274474,101.099,-8.4563,3.3456
1637208274488,101.3305,-8.6513,5.3639
1637208274504,102.0072,-8.1549,5.8185
1637208274520,101.5976,-7.8003,4.9276
1637208274534,101.6511,-8.5626,5.4003
1637208274550,100.9209,-7.6408,5.0912
1637208274566,100.7606,-8.0485,4.3093
1637208274580,100.9565,-8.4386,5.1821
1637208274596,100.4579,-8.9527,4.9276
1637208274612,100.4045,-8.6158,4.6548
1637208274626,101.0634,-8.1194,5.6731
1637208274642,101.4552,-7.8181,5.073
1637208274658,102.4703,-7.5344,6.0185
1637208274672,102.4881,-7.1267,6.1276
1637208274688,102.2744,-8.7931,4.1639
1637208274704,101.5264,-10.2114,3.9275
1637208274718,101.188,-10.3177,5.3276
1637208274734,101.8826,-8.5095,4.6366
1637208274750,100.8141,-8.7931,5.3094
1637208274766,100.8675,-8.2613,6.1094
1637208274780,101.2237,-7.9422,4.6912
1637208274796,101.6689,-7.304,4.073
1637208274812,100.6182,-7.3217,5.3639
1637208274826,100.7784,-7.9244,5.7094
1637208274842,101.2593,-8.8463,5.3639
1637208274858,102.5771,-9.0413,6.164
1637208274872,102.6483,-8.7754,5.4367
1637208274888,101.6511,-8.474,5.0185
1637208274904,100.7784,-8.4563,5.3821
1637208274918,101.2415,-7.9422,5.5276
1637208274934,101.9894,-7.8535,6.0185
1637208274950,100.7784,-8.3499,5.1276
1637208274964,100.9209,-8.7754,5.3458
1637208274980,102.2565,-9.325,4.6912
1637208274996,102.1319,-10.6368,4.1093
1637208275010,101.6333,-10.4595,5.9276
1637208275026,101.5442,-9.52,5.4185
1637208275042,101.5798,-8.9349,3.7639
1637208275056,101.7401,-8.1372,3.6548
1637208275072,101.0634,-8.1194,3.5093
1637208275088,99.8702,-8.5804,4.2912
1637208275102,100.9209,-9.2363,3.2002
1637208275118,102.1675,-9.2186,3.2729
1637208275134,102.3812,-7.694,4.1457
1637208275150,101.473,-7.4103,5.073
1637208275164,100.8497,-7.7826,3.8911
1637208275180,100.9743,-8.6513,3.8911
1637208275196,101.2237,-8.4917,4.5639
1637208275210,102.0428,-8.4386,4.7275
1637208275226,102.4168,-8.6513,3.8184
1637208275242,102.7908,-8.9881,3.4184
1637208275256,102.2922,-8.7931,4.2184
1637208275272,101.5086,-8.7577,4.8003
1637208275288,102.4168,-7.3749,4.873
1637208275302,102.0607,-8.1904,4.6912
1637208275318,101.1346,-8.5272,5.4185
1637208275334,100.4579,-7.9953,4.8548
1637208275348,100.262,-6.8076,5.9458
1637208275364,100.8675,-7.4458,4.5275
1637208275380,101.0456,-7.7826,5.1094
1637208275394,102.2387,-9.2363,4.0911
1637208275410,102.0785,-9.5377,4.7639
1637208275426,101.8291,-10.0873,3.7639
1637208275440,100.5647,-9.715,3.5457
1637208275456,100.6182,-9.3072,3.8729
1637208275472,100.4045,-9.2009,3.4911
1637208275486,102.0607,-8.3676,4.0911
1637208275502,102.0428,-8.3676,6.2185
1637208275518,100.3688,-8.4917,5.7094
1637208275534,101.2058,-7.5521,3.782
1637208275548,102.31,-8.4386,2.4729
1637208275564,102.2565,-8.084,3.3638
1637208275580,102.1141,-10.0341,4.6184
1637208275594,100.9743,-8.9172,4.2002
1637208275610,100.9743,-8.5804,4.8548
1637208275626,101.3661,-8.3145,6.1458
1637208275640,101.2771,-9.059,6.164
1637208275656,101.3483,-8.9349,5.0548
1637208275672,101.7757,-8.7754,4.7821
1637208275686,100.9565,-8.4208,4.673
1637208275702,101.099,-8.3676,5.0548
1637208275718,101.3839,-9.4313,3.2365
1637208275732,100.8319,-9.2718,1.8183
1637208275748,101.4552,-8.669,5.1821
1637208275764,101.936,-9.6618,4.5639
1637208275778,102.6305,-8.3499,3.982
1637208275794,102.1497,-8.5981,4.4912
1637208275810,100.6004,-8.4386,4.0548
1637208275824,101.5442,-8.5804,3.4366
1637208275840,101.1524,-8.7399,3.4366
1637208275856,101.0812,-8.4208,5.0548
1637208275870,101.1346,-9.3781,5.6003
1637208275886,101.4017,-8.5272,4.4184
1637208275902,101.8826,-7.5344,5.8185
1637208275918,101.7935,-8.8818,5.0548
1637208275932,101.1168,-9.5554,4.673
1637208275948,101.0634,-8.7931,4.2002
1637208275964,101.6154,-8.864,3.4184
1637208275978,101.4374,-7.9599,4.5093
1637208275994,101.4374,-8.3854,4.7275
1637208276010,101.8113,-8.5804,5.0912
1637208276024,101.9004,-7.6053,5.764
1637208276040,101.7045,-8.6867,4.4003
1637208276056,100.7428,-8.6513,3.7639
1637208276070,100.9387,-8.5804,1.891
1637208276086,100.9921,-9.1477,3.5457
1637208276102,101.8113,-8.7045,2.5638
1637208276116,102.0072,-7.1621,4.2912
1637208276132,101.8826,-7.8713,5.2912
1637208276148,101.2415,-8.3676,5.0367
1637208276162,101.936,-7.8003,4.0366
1637208276178,102.8977,-9.0413,5.3094
1637208276194,101.6154,-10.3709,4.7821
1637208276208,100.4935,-8.669,3.8548
1637208276224,100.6182,-8.2435,5.8367
1637208276240,100.7428,-7.5876,4.7821
1637208276254,101.188,-6.6126,3.582
1637208276270,101.2415,-7.1799,2.6547
1637208276286,101.4374,-8.0131,3.8002
1637208276302,100.4757,-8.4386,4.5639
1637208276316,101.0456,-7.9776,4.5639
1637208276332,101.9716,-8.5626,4.3275
1637208276348,102.399,-7.7472,4.5275
1637208276362,102.4524,-7.8535,3.8002
1637208276378,101.562,-8.6513,4.5093
1637208276394,100.6894,-8.0308,5.0367
1637208276408,100.3332,-8.1194,5.0003
1637208276424,101.473,-7.4635,5.3821
1637208276440,101.8113,-6.4885,4.9276
1637208276454,102.3456,-6.5416,4.8185
1637208276470,101.5264,-7.6053,5.6003
1637208276486,101.5976,-8.7577,5.1821
1637208276500,101.5798,-8.5095,5.6003
1637208276516,101.5264,-7.0026,5.5094
1637208276532,101.2949,-6.3466,5.4367
1637208276546,101.2949,-6.7721,6.1094
1637208276562,101.7935,-7.1799,5.0003
1637208276578,102.8264,-7.9776,4.6548
1637208276592,102.5949,-8.8995,5.6912
1637208276608,101.562,-9.325,5.1639
1637208276624,100.8675,-7.8358,6.3458
1637208276638,100.6004,-7.7649,6.4185
1637208276654,100.8853,-8.2258,5.3821
1637208276670,101.8291,-7.1267,4.9821
1637208276686,100.8319,-6.3466,4.3821
1637208276700,101.6154,-5.9566,6.0913
1637208276716,102.8264,-6.1339,6.0913
1637208276732,102.2387,-6.4353,5.4367
1637208276746,102.4524,-7.5167,5.0185
1637208276762,101.3839,-8.5449,4.873
1637208276778,101.0278,-7.9422,4.8185
1637208276792,101.2058,-7.8358,5.764
1637208276808,100.173,-8.0663,4.7094
1637208276824,101.5976,-8.1194,4.5275
1637208276838,101.6154,-7.8003,4.8003
1637208276854,102.0428,-7.0735,4.6912
1637208276870,100.7606,-6.9139,4.0548
1637208276884,100.6894,-7.2685,3.5457
1637208276900,101.0812,-6.7898,4.1093
1637208276916,101.6689,-7.8003,4.5821
1637208276930,102.1675,-8.2967,5.7821
1637208276946,102.5949,-7.499,6.564
1637208276962,101.473,-8.0131,7.4004
1637208276976,100.8141,-8.864,7.7277
1637208276992,101.0278,-7.0735,3.6548
1637208277008,102.1141,-6.1516,3.8002
1637208277022,101.5798,-7.0026,4.9821
1637208277038,101.8291,-8.4563,6.2549
1637208277054,101.847,-8.474,6.0185
1637208277070,101.7401,-8.669,6.9277
1637208277084,102.3278,-7.7294,5.9822
1637208277100,101.2593,-7.1621,6.2185
1637208277116,101.6154,-6.9139,5.9094
1637208277130,102.5771,-7.038,5.8912
1637208277146,101.6333,-6.9494,6.5822
1637208277162,101.2593,-7.7472,7.2186
1637208277176,102.3456,-7.7294,7.1822
1637208277192,100.7428,-7.2862,6.8004
1637208277208,101.188,-6.4707,5.4185
1637208277222,100.8497,-6.6303,7.2004
1637208277238,101.7935,-6.9849,6.0549
1637208277254,102.8264,-6.7367,5.1094
1637208277268,101.3305,-7.9422,5.273
1637208277284,102.1319,-6.8076,5.3276
1637208277300,101.4374,-6.7367,6.4549
1637208277314,102.8442,-7.6762,6.3458
1637208277330,102.5415,-7.7826,6.6004
1637208277346,101.9004,-7.6231,6.5095
1637208277360,102.4703,-7.7294,6.0549
1637208277376,102.3278,-8.4208,5.9822
1637208277392,101.9538,-7.1089,6.6549
1637208277406,101.936,-7.3749,5.964
1637208277422,102.7908,-7.1089,6.1276
1637208277438,102.1497,-8.0308,5.9458
1637208277454,101.1346,-8.8463,6.4731
1637208277468,100.6894,-8.2258,6.564
1637208277484,102.0428,-8.1194,7.0368
1637208277500,103.3251,-8.1549,5.7458
1637208277514,102.4881,-8.8108,5.3276
1637208277530,102.1319,-8.5804,5.964
1637208277546,100.9387,-8.6513,5.6912
1637208277560,101.1346,-8.279,5.8367
1637208277576,101.6867,-7.8535,5.5094
1637208277592,102.025,-8.1726,5.0367
1637208277606,102.31,-7.5876,5.4367
1637208277622,102.4524,-6.8785,5.4549
1637208277638,102.6127,-7.0203,5.5821
1637208277652,102.6305,-7.038,5.4912
1637208277668,102.5771,-7.499,7.4732
1637208277684,101.4195,-8.0663,6.2913
1637208277698,101.562,-6.1871,6.6004
1637208277714,101.1524,-7.6053,7.6913
1637208277730,101.473,-7.4812,7.164
1637208277744,101.5976,-7.8181,4.8003
1637208277760,101.6154,-8.279,4.0911
1637208277776,102.1675,-7.8713,4.6912
1637208277790,102.025,-7.6585,6.6367
1637208277806,102.1497,-7.9599,7.4186
1637208277822,102.2209,-7.7826,7.4732
1637208277838,101.473,-7.0026,6.4913
1637208277852,102.2744,-6.5948,6.4185
1637208277868,102.2209,-7.3394,6.0731
1637208277884,101.9004,-7.304,7.7459
1637208277898,100.4401,-7.9422,7.1459
1637208277914,100.2264,-7.1444,7.1277
1637208277930,101.2593,-7.8713,5.3639
1637208277944,101.4908,-7.8713,4.0548
1637208277960,101.3661,-7.9244,6.3095
1637208277976,102.3278,-7.499,6.2731
1637208277990,102.6127,-6.9317,6.0003
1637208278006,102.0607,-6.9849,5.9276
1637208278022,100.2798,-6.5771,6.8913
1637208278036,101.1168,-6.9494,7.9459
1637208278052,101.7223,-6.6657,8.2005
1637208278068,102.7374,-9.3604,7.4732
1637208278082,101.936,-8.7577,6.8186
1637208278098,102.0963,-8.9172,4.9276
1637208278114,101.9538,-8.4386,5.764
1637208278128,100.6894,-7.7294,5.764
1637208278144,101.0456,-7.6053,5.7821
1637208278160,101.4017,-8.7754,4.9276
1637208278174,102.5237,-8.3854,5.3639
1637208278190,102.2565,-7.9244,5.273
1637208278206,101.8648,-8.5626,6.0185
1637208278222,101.562,-8.2435,6.2004
1637208278236,102.1853,-7.7649,5.6003
1637208278252,101.4017,-9.0413,5.564
1637208278268,101.6154,-10.1227,4.3093
1637208278282,101.4908,-7.8358,5.8185
1637208278298,100.7963,-7.7472,6.2367
1637208278314,101.5798,-7.9422,5.8912
1637208278328,100.725,-7.7649,4.8185
1637208278344,101.3483,-7.6585,6.0185
1637208278360,100.8853,-7.0026,4.1639
1637208278374,102.0607,-6.5416,4.5093
1637208278390,102.3456,-6.4176,5.9094
1637208278406,101.936,-7.233,4.3639
1637208278420,101.2593,-7.6408,6.2367
1637208278436,100.2442,-8.1549,6.2731
1637208278452,99.9236,-8.0485,4.1821
1637208278466,101.2415,-6.5416,4.1457
1637208278482,102.9689,-5.8325,5.1639
1637208278498,102.7374,-5.9212,5.9822
1637208278512,102.1853,-7.4635,6.0367
1637208278528,101.7579,-8.5095,5.4185
1637208278544,100.9209,-7.3571,6.2185
1637208278558,100.8319,-7.7649,5.9458
1637208278574,100.5825,-8.1194,4.4548
1637208278590,99.7812,-7.7294,3.9457
1637208278606,99.4962,-7.5167,4.0548
1637208278620,100.4045,-7.499,4.873
1637208278636,101.7401,-6.5594,5.4003
1637208278652,102.3634,-7.038,4.1093
1637208278666,102.4346,-7.4635,3.8729
1637208278682,100.8675,-7.5876,5.8549
1637208278698,101.1702,-7.1267,5.8003
1637208278712,100.725,-6.6835,5.8549
1637208278728,100.5291,-6.4707,5.6549
1637208278744,101.8648,-6.2048,4.2184
1637208278758,102.3634,-7.0203,5.3276
1637208278774,101.6689,-6.4176,5.4549
1637208278790,102.025,-6.9317,5.273
1637208278804,101.936,-7.8713,6.764
1637208278820,103.0757,-9.059,7.164
1637208278836,102.31,-8.1194,6.0731
1637208278850,102.2387,-8.8108,3.8729
1637208278866,101.3839,-8.474,4.7094
1637208278882,100.7784,-8.2258,5.273
1637208278896,101.8826,-8.3145,5.7821
1637208278912,101.6333,-7.8358,5.4003
1637208278928,102.5415,-7.5699,5.6185
1637208278942,102.1497,-7.0735,5.564
1637208278958,101.7045,-7.5699,4.9821
1637208278974,101.3483,-6.9849,4.6548
1637208278990,101.936,-7.2508,6.2004
1637208279004,102.2031,-7.9953,6.764
1637208279020,102.7552,-7.8358,6.0731
1637208279036,102.9333,-8.7045,6.0367
1637208279050,101.8113,-9.0236,6.6186
1637208279066,102.7374,-8.6867,5.4549
1637208279082,102.773,-7.1267,4.6003
1637208279096,102.2565,-6.2935,5.3639
1637208279112,102.2744,-6.0807,6.2913
1637208279128,102.0607,-6.8962,5.0548
1637208279142,101.936,-6.8785,6.1276
1637208279158,99.9771,-6.2225,5.3276
1637208279174,99.9414,-5.3539,3.2184
1637208279188,100.7428,-5.9389,3.0911
1637208279204,102.5771,-6.4176,4.9276
1637208279220,101.6333,-5.3539,4.8185
1637208279234,102.025,-6.0807,6.6367
1637208279250,102.025,-7.2685,6.6186
1637208279266,101.936,-8.4563,6.1276
1637208279280,101.8648,-7.6762,5.0548
1637208279296,101.6333,-8.1904,5.6003
1637208279312,101.7401,-8.2967,6.0731
1637208279326,101.8826,-8.1726,6.8004
1637208279342,102.7552,-7.1799,6.1276
1637208279358,101.9182,-8.6867,6.364
1637208279374,102.2744,-7.3926,5.8367
1637208279388,102.6483,-7.4812,3.6002
1637208279404,102.31,-6.0807,5.1639
1637208279420,102.3278,-7.0203,4.9276
1637208279434,101.7757,-7.5699,5.5458
1637208279450,101.5086,-7.4635,6.3458
1637208279466,100.9565,-5.9921,6.4913
1637208279480,100.6716,-6.3644,4.5093
1637208279496,100.725,-7.4635,5.6003
1637208279512,101.473,-7.0912,6.7458
1637208279526,101.6154,-7.1444,6.164
1637208279542,102.3634,-7.6231,5.6185
1637208279558,101.9182,-7.7472,5.0367
1637208279572,101.7223,-7.9953,4.7457
1637208279588,101.8113,-8.1726,6.4185
1637208279604,102.5237,-7.9422,6.0549
1637208279618,101.7223,-7.9599,6.2549
1637208279634,102.1141,-6.453,5.2548
1637208279650,101.6154,-7.1621,5.6003
1637208279664,102.0072,-7.3749,6.4185
1637208279680,102.5059,-7.8535,6.6367
1637208279696,102.3456,-7.5167,5.8185
1637208279710,102.2744,-6.5416,5.764
1637208279726,101.4908,-6.7367,6.0913
1637208279742,101.099,-6.8076,6.3822
1637208279758,101.9004,-7.7117,5.3458
1637208279772,102.399,-8.0131,5.2367
1637208279788,102.2387,-7.7826,4.5275
1637208279804,101.3661,-7.3217,5.8367
1637208279818,100.7606,-6.7544,4.673
1637208279834,101.5264,-7.4458,4.6912
1637208279850,102.4881,-7.6053,5.273
1637208279864,103.3073,-7.038,5.7094
1637208279880,101.473,-6.843,7.0186
1637208279896,100.6004,-8.9349,6.8368
1637208279910,102.0072,-7.694,6.8731
1637208279926,102.6305,-7.7117,6.4367
1637208279942,102.3812,-6.5062,5.8003
1637208279956,101.8291,-5.6375,4.3639
1637208279972,101.5976,-6.6835,3.782
1637208279988,101.01,-7.5344,4.5275
1637208280002,102.2387,-8.0663,5.6912
1637208280018,103.5031,-8.8463,5.9094
1637208280034,102.4881,-8.9704,6.0913
1637208280048,102.0963,-8.1017,6.8731
1637208280064,101.5442,-7.2508,6.0003
1637208280080,100.9387,-8.0485,6.9459
1637208280094,100.6894,-8.3322,6.5276
1637208280110,101.4908,-7.5167,8.1459
1637208280126,101.2771,-7.5876,7.2004
1637208280142,102.0785,-7.499,6.4731
1637208280156,102.9333,-7.8003,6.5095
1637208280172,101.562,-8.7222,6.1458
1637208280188,101.099,-9.3604,6.8549
1637208280202,100.7784,-8.9349,6.5822
1637208280218,101.9004,-8.1194,4.9094
1637208280234,101.0634,-8.2967,3.8911
1637208280248,100.8675,-8.1904,6.1276
1637208280264,101.3661,-6.9671,5.764
1637208280280,101.9182,-7.7649,5.8731
1637208280294,101.7045,-6.8253,6.3822
1637208280310,101.3483,-6.9139,5.1276
1637208280326,101.2949,-7.9067,3.6366
1637208280340,101.4552,-7.4812,5.0185
1637208280356,101.2593,-8.084,5.6549
1637208280372,101.3127,-7.233,6.1094
1637208280386,101.2593,-6.3998,5.1821
1637208280402,101.8113,-7.0203,5.6367
1637208280418,102.4346,-8.1194,5.3821
1637208280432,101.9538,-8.669,6.1822
1637208280448,102.1853,-8.6336,6.9277
1637208280464,102.025,-8.474,5.3639
1637208280478,101.8826,-8.3322,4.8548
1637208280494,100.1017,-8.7754,5.1639
1637208280510,99.2825,-9.6086,5.1276
1637208280526,99.9414,-10.2468,5.7094
1637208280540,99.8702,-10.4064,6.1822
1637208280556,100.8319,-8.7399,6.1458
1637208280572,100.6538,-8.6336,4.7821
1637208280586,100.9565,-8.1194,6.764
1637208280602,101.0278,-8.0663,7.6004
1637208280618,102.8086,-10.2645,6.4549
1637208280632,102.5949,-9.2718,7.2368
1637208280648,101.2771,-9.254,8.9641
1637208280664,102.684,-9.0945,6.564
1637208280678,101.8291,-9.6441,7.7277
1637208280694,100.9565,-10.5127,7.5459
1637208280710,102.1497,-9.2186,5.273
1637208280724,102.8798,-8.864,6.0367
1637208280740,102.1675,-8.9881,6.1822
1637208280756,102.399,-10.7964,5.7821
1637208280770,101.7935,-9.8391,6.7822
1637208280786,101.7757,-10.5659,6.5276
1637208280802,101.1524,-9.9632,7.655
1637208280816,100.8853,-10.3355,8.1823
1637208280832,101.6867,-10.7609,6.9822
1637208280848,101.847,-10.1404,7.2368
1637208280862,100.9031,-9.91,6.6367
1637208280878,101.8113,-10.2823,7.0004
1637208280894,100.9209,-9.91,6.2731
1637208280910,101.9004,-9.6441,4.5821
1637208280924,102.5415,-9.7504,6.0731
1637208280940,99.8168,-10.9027,6.2549
1637208280956,99.2647,-10.3177,4.7275
1637208280970,100.9031,-8.8108,4.9276
1637208280986,102.2387,-8.3322,4.0911
1637208281002,102.773,-9.2186,2.6001
1637208281016,102.4703,-10.4773,3.0729
1637208281032,103.0401,-9.8036,3.5457
1637208281048,102.025,-9.3959,4.2912
1637208281062,101.4017,-9.1122,3.7457
1637208281078,101.7045,-8.3145,2.8729
1637208281094,101.1346,-8.5449,2.382
1637208281108,100.6538,-8.8995,2.0183
1637208281124,101.188,-8.1726,1.2728
1637208281140,101.0278,-7.7649,1.4183
1637208281154,100.9565,-7.9599,0.9091
1637208281170,101.0456,-6.7544,1.7092
1637208281186,100.2798,-7.3217,1.091
1637208281200,100.3154,-8.5626,0.8182
1637208281216,100.1908,-8.2258,1.891
1637208281232,101.2415,-8.0131,0.1455
1637208281246,103.1826,-8.4917,0.0909
1637208281262,104.3758,-9.0413,0.2182
1637208281278,102.2387,-9.0058,-0.6546
1637208281294,100.9565,-9.4668,0.6909
1637208281308,100.4935,-10.0873,1.5274
1637208281324,101.2415,-9.8745,0.8728
1637208281340,101.4908,-9.8923,1.0182
1637208281354,102.0072,-8.1726,1.4183
1637208281370,100.9387,-7.8358,-0.3818
1637208281386,99.1222,-8.2613,0.0909
1637208281400,98.4277,-8.6867,2.1456
1637208281416,98.6948,-7.9422,0.8182
1637208281432,101.7045,-6.8785,-1.4001
1637208281446,102.7018,-7.6585,-2.982
1637208281462,102.5949,-8.474,-1.6001
1637208281478,102.3278,-9.449,-1.6546
1637208281492,101.847,-8.8818,-0.8364
1637208281508,100.5647,-8.6867,-2.2183
1637208281524,100.2798,-6.9317,-3.0911
1637208281538,100.2086,-7.1799,-1.7637
1637208281554,99.9058,-7.2685,-1.6001
1637208281570,100.1908,-7.7649,-2.2183
1637208281584,101.6154,-7.3571,-1.9274
1637208281600,102.2387,-6.8608,-4.4548
1637208281616,102.773,-7.3394,-5.073
1637208281630,103.0223,-7.233,-1.8728
1637208281646,100.7784,-8.1726,-0.7819
1637208281662,100.1017,-8.3499,-3.3275
1637208281678,100.7784,-7.8713,-3.4729
1637208281692,100.1195,-6.3466,-4.8548
1637208281708,100.1551,-6.1162,-5.3276
1637208281724,100.8497,-6.4885,-5.1094
1637208281738,101.01,-6.2225,-4.1457
1637208281754,100.8853,-5.7971,-4.2184
1637208281770,100.6716,-5.7262,-3.4729
1637208281784,101.2949,-5.1943,-4.4366
1637208281800,101.5442,-6.9494,-5.5458
1637208281816,101.5264,-7.7826,-6.2004
1637208281830,101.3305,-6.9671,-4.2912
1637208281846,101.0634,-6.5416,-4.0911
1637208281862,100.6716,-5.212,-5.6003
1637208281876,99.6387,-5.0702,-5.5094
1637208281892,100.4579,-6.4176,-6.564
1637208281908,101.1702,-6.4885,-7.1095
1637208281922,100.5825,-5.7971,-8.1823
1637208281938,101.1524,-5.868,-6.6004
1637208281954,101.1346,-5.1589,-8.2187
1637208281968,101.0278,-4.9107,-8.8914
1637208281984,100.9743,-5.7439,-8.9823
1637208282000,100.9565,-6.4885,-8.5278
1637208282014,101.4374,-5.2298,-7.8914
1637208282030,100.9209,-4.822,-7.0004
1637208282046,100.351,-5.673,-7.8186
1637208282062,99.6209,-5.8857,-7.7095
1637208282076,100.4757,-5.6552,-7.5641
1637208282092,99.5853,-6.063,-7.6732
1637208282108,100.1908,-6.258,-7.1277
1637208282122,100.725,-6.8608,-6.0367
1637208282138,100.1017,-7.1444,-5.2003
1637208282154,100.7963,-6.1871,-8.3096
1637208282168,101.7757,-5.9034,-10.6188
1637208282184,101.4017,-5.6907,-10.5824
1637208282200,101.188,-5.478,-9.4005
1637208282214,100.3867,-5.9566,-9.7278
1637208282230,100.0839,-5.8857,-7.3641
1637208282246,99.888,-5.9744,-8.0914
1637208282260,99.4606,-5.9034,-8.5096
1637208282276,100.3332,-5.6198,-9.4187
1637208282292,100.1373,-5.9921,-11.0915
1637208282306,100.8853,-6.5771,-10.0006
1637208282322,100.173,-6.1339,-9.5642
1637208282338,99.3181,-6.5062,-10.0188
1637208282352,100.6182,-5.6375,-10.2006
1637208282368,101.3661,-5.1943,-10.7461
1637208282384,101.7935,-5.5666,-10.1824
1637208282398,100.2442,-6.0807,-8.0914
1637208282414,100.2442,-5.9744,-10.6188
1637208282430,100.9031,-6.1516,-11.5097
1637208282446,100.1195,-5.9566,-10.8733
1637208282460,100.0483,-6.7189,-10.2006
1637208282476,100.1551,-5.017,-10.0551
1637208282492,100.4757,-5.8503,-8.655
1637208282506,99.425,-4.9284,-8.3823
1637208282522,99.9771,-5.3539,-9.5096
1637208282538,101.1524,-5.8857,-8.8005
1637208282552,100.9743,-5.9389,-9.5824
1637208282568,100.8675,-5.1766,-9.0369
1637208282584,100.8497,-5.0348,-9.1823
1637208282598,100.7606,-5.5666,-9.4005
1637208282614,100.6894,-5.1057,-8.4187
1637208282630,100.5469,-5.4425,-7.0368
1637208282644,100.3332,-5.2475,-7.5641
1637208282660,100.6004,-4.822,-7.3277
1637208282676,101.1346,-5.1589,-8.4914
1637208282690,101.1168,-4.5384,-8.0914
1637208282706,101.8291,-4.0243,-8.4732
1637208282722,102.025,-3.7229,-9.1823
1637208282736,101.7757,-4.7866,-9.4733
1637208282752,101.6689,-4.1129,-9.4915
1637208282768,100.8319,-3.7406,-10.4733
1637208282782,100.2976,-4.822,-10.437
1637208282798,100.636,-5.2298,-9.9278
1637208282814,101.473,-5.3893,-10.2551
1637208282830,101.2058,-5.3893,-10.5824
1637208282844,100.5469,-4.8398,-7.5641
1637208282860,100.3332,-5.7971,-7.8914
1637208282876,99.6743,-5.9566,-7.9095
1637208282890,99.5853,-6.7012,-8.746
1637208282906,100.4935,-5.0702,-9.0551
1637208282922,101.2058,-4.3966,-10.3279
1637208282936,101.4195,-3.4747,-10.9461
1637208282952,101.188,-4.2193,-10.2915
1637208282968,102.1319,-4.5738,-10.6006
1637208282982,102.1141,-4.6447,-8.7278
1637208282998,100.9921,-4.1129,-7.8914
1637208283014,101.01,-4.9639,-7.4004
1637208283028,100.3867,-4.8929,-8.4732
1637208283044,101.2415,-4.627,-9.4369
1637208283060,100.7784,-3.8647,-9.8733
1637208283074,100.9209,-4.9993,-9.4733
1637208283090,101.1346,-5.3716,-8.946
1637208283106,101.7935,-4.6802,-11.0552
1637208283120,101.5086,-4.3434,-11.7098
1637208283136,100.8319,-5.0348,-9.0914
1637208283152,100.5291,-5.868,-8.3823
1637208283166,100.5469,-5.3361,-9.6551
1637208283182,100.6716,-5.8325,-9.7824
1637208283198,100.3867,-5.017,-9.346
1637208283214,101.1524,-4.9107,-10.437
1637208283228,100.8319,-3.4747,-9.4551
1637208283244,100.3332,-4.627,-10.0915
1637208283260,100.9387,-5.1057,-9.4915
1637208283274,100.0305,-4.1306,-10.9279
1637208283290,100.9743,-4.5029,-10.4915
1637208283306,100.6716,-4.9639,-9.6187
1637208283320,100.7963,-4.8575,-8.4187
1637208283336,99.9236,-5.1589,-8.2914
1637208283352,101.4374,-4.3079,-8.255
1637208283366,101.7223,-4.627,-9.0369
1637208283382,100.2976,-4.7157,-10.0915
1637208283398,98.7483,-4.432,-10.0733
1637208283412,100.0839,-3.3151,-9.4005
1637208283428,100.6716,-2.9429,-9.4369
1637208283444,101.5976,-2.3224,-9.1096
1637208283458,102.3812,-2.411,-8.1277
1637208283474,102.3634,-3.3151,-8.4187
1637208283490,101.8648,-3.8115,-9.546
1637208283504,101.8826,-3.5102,-8.7641
1637208283520,102.025,-4.0597,-9.4915
1637208283536,101.5976,-4.4143,-10.0188
1637208283550,102.1141,-4.3611,-9.0005
1637208283566,101.7223,-4.0597,-9.2369
1637208283582,100.5469,-4.1484,-9.6915
1637208283598,99.336,-4.7157,-10.5461
1637208283612,100.173,-3.6342,-11.5461
1637208283628,99.1757,-4.5029,-8.4732
1637208283644,99.5675,-3.1201,-8.5459
1637208283658,99.9058,-3.0315,-10.0188
1637208283674,100.262,-3.7938,-13.0553
1637208283690,101.099,-4.1306,-11.2916
1637208283704,101.0812,-4.0597,-10.2369
1637208283720,100.9031,-3.5456,-9.8006
1637208283736,101.1346,-4.822,-9.7278
1637208283750,100.0839,-5.6021,-10.4006
1637208283766,100.6004,-3.9711,-11.2006
1637208283782,100.8675,-3.2442,-11.4552
1637208283796,101.4374,-2.7301,-10.4915
1637208283812,100.5113,-4.0775,-10.6006
1637208283828,100.6894,-4.4852,-10.9824
1637208283842,102.0428,-3.7938,-11.4734
1637208283858,102.3812,-3.7406,-11.7098
1637208283874,101.2593,-3.9534,-9.8551
1637208283888,99.6921,-3.7406,-10.0369
1637208283904,101.0456,-3.2797,-10.4188
1637208283920,100.636,-2.8188,-10.1097
1637208283934,99.9593,-3.262,-9.6187
1637208283950,99.888,-3.9888,-11.3643
1637208283966,100.636,-4.627,-10.8006
1637208283982,100.8141,-5.1057,-10.837
1637208283996,101.3305,-4.7866,-10.0006
1637208284012,101.5264,-3.5456,-9.8915
1637208284028,101.188,-3.5633,-9.946
1637208284042,101.7045,-3.8293,-9.6551
1637208284058,101.2237,-3.847,-9.5642
1637208284074,101.6511,-4.4497,-10.7097
1637208284088,101.4374,-4.1838,-10.5097
1637208284104,101.7935,-4.9461,-10.3279
1637208284120,100.9565,-4.6979,-9.5278
1637208284134,100.1908,-4.5384,-10.0733
1637208284150,99.9236,-4.0775,-9.8551
1637208284166,100.6182,-4.5029,-10.3824
1637208284180,100.351,-3.8647,-11.037
1637208284196,100.9031,-4.2725,-10.8006
1637208284212,100.7963,-4.7511,-10.0006
1637208284226,100.2976,-4.5561,-10.4006
1637208284242,99.888,-4.6625,-10.2733
1637208284258,101.188,-4.6802,-10.4551
1637208284272,101.2237,-4.3434,-11.3643
1637208284288,102.0607,-3.8824,-10.2551
1637208284304,101.5264,-4.0597,-9.6551
1637208284318,101.1702,-3.4215,-11.1461
1637208284334,99.799,-3.7938,-9.9278
1637208284350,99.5497,-3.7229,-9.0732
1637208284366,101.5976,-1.3119,-10.8188
1637208284380,102.1141,-1.7728,-11.637
1637208284396,101.0634,-2.5706,-11.5097
1637208284412,100.262,-4.3434,-10.2006
1637208284426,100.1551,-4.7157,-9.4369
1637208284442,101.2771,-4.3611,-10.1097
1637208284458,101.0812,-3.652,-10.2551
1637208284472,100.8675,-3.2442,-8.4914
1637208284488,100.0661,-4.0243,-9.6551
1637208284504,99.2469,-3.5102,-10.7097
1637208284518,99.9771,-2.9783,-9.6187
1637208284534,101.188,-4.6802,-9.1278
1637208284550,102.0428,-4.7688,-9.3096
1637208284564,101.8826,-3.6342,-10.7824
1637208284580,101.936,-3.847,-9.5824
1637208284596,101.3305,-4.6802,-7.9823
1637208284610,102.0963,-4.2193,-8.7823
1637208284626,102.5415,-3.4747,-9.7642
1637208284642,103.3963,-3.1201,-9.9824
1637208284656,103.2004,-2.1805,-8.6005
1637208284672,101.3305,-4.4852,-9.7642
1637208284688,100.6894,-4.3966,-8.5278
1637208284702,101.4908,-4.2725,-9.346
1637208284718,101.473,-4.5029,-10.2551
1637208284734,101.3661,-4.2725,-8.8187
1637208284750,100.6182,-4.0952,-9.5096
1637208284764,100.7963,-4.4497,-9.346
1637208284780,100.9031,-4.0597,-10.9643
1637208284796,101.7579,-4.1484,-10.6733
1637208284810,101.6867,-4.4497,-9.3096
1637208284826,101.2771,-3.9356,-9.4733
1637208284842,101.188,-2.8897,-9.4915
1637208284856,101.0812,-2.996,-10.1097
1637208284872,100.9031,-3.652,-8.5278
1637208284888,99.2825,-4.5207,-8.9278
1637208284902,100.2264,-3.7229,-10.2915
1637208284918,100.5825,-3.7229,-9.6187
1637208284934,101.6154,-3.7583,-8.055
1637208284948,102.2387,-3.5279,-9.1096
1637208284964,101.1524,-4.2015,-10.146
1637208284980,101.562,-3.6697,-11.2916
1637208284994,101.8113,-2.411,-10.0551
1637208285010,101.1346,-3.0315,-8.0732
1637208285026,100.7963,-3.5456,-9.8006
1637208285040,100.173,-4.9107,-9.6551
1637208285056,100.5291,-4.042,-8.4005
1637208285072,101.2771,-2.5174,-9.6551
1637208285086,101.7045,-3.6697,-10.2188
1637208285102,101.4552,-4.1484,-11.1279
1637208285118,101.6333,-4.5561,-9.946
1637208285134,101.188,-5.4602,-8.0368
1637208285148,100.4401,-5.3539,-8.6005
1637208285164,99.9771,-4.0952,-9.3096
1637208285180,99.6743,-4.7688,-10.3279
1637208285194,99.6921,-3.7938,-9.6005
1637208285210,101.0812,-3.9002,-8.4914
1637208285226,100.8141,-3.3861,-8.055
1637208285240,100.0305,-3.9179,-8.0914
1637208285256,99.9593,-4.3079,-9.2369
1637208285272,99.4606,-4.0243,-9.6915
1637208285286,101.6154,-3.2265,-9.8006
1637208285302,101.0278,-2.411,-8.4187
1637208285318,100.8675,-3.1201,-7.9095
1637208285332,102.5593,-2.9429,-8.2187
1637208285348,101.8648,-2.5883,-8.3823
1637208285364,100.8141,-2.6238,-9.2369
1637208285378,101.3661,-3.1733,-7.9095
1637208285394,100.8319,-3.7761,-8.1459
1637208285410,100.262,-4.0775,-9.6187
1637208285424,100.5291,-3.3151,-8.9641
1637208285440,100.6538,-3.4747,-8.1096
1637208285456,100.4401,-3.5102,-8.6005
1637208285470,100.3867,-3.5456,-8.4187
1637208285486,101.188,-3.2442,-8.6369
1637208285502,100.2086,-3.8293,-9.9097
1637208285518,101.0278,-4.4497,-8.4732
1637208285532,101.2415,-3.847,-8.5278
1637208285548,100.7606,-2.7833,-9.6369
1637208285564,101.0812,-2.8897,-9.6005
1637208285578,101.6511,-3.1379,-9.1823
1637208285594,102.0607,-3.0138,-9.4005
1637208285610,102.2209,-4.1661,-10.0551
1637208285624,101.1346,-4.1129,-9.2733
1637208285640,99.6387,-2.8897,-8.1823
1637208285656,99.5318,-2.8719,-8.8551
1637208285670,100.9209,-2.5351,-9.5642
1637208285686,100.5825,-2.801,-8.455
1637208285702,99.5853,-3.7406,-9.6369
1637208285716,100.9209,-2.8365,-10.2733
1637208285732,101.1168,-4.1838,-7.6368
1637208285748,101.9894,-4.5384,-6.5822
1637208285762,101.2771,-5.1411,-6.8549
1637208285778,100.8497,-5.1766,-6.7277
1637208285794,101.4195,-3.6874,-8.055
1637208285808,100.8853,-3.5811,-8.9823
1637208285824,101.0456,-3.5988,-7.3822
1637208285840,100.5825,-2.7124,-8.5459
1637208285854,101.2058,-4.2725,-7.5459
1637208285870,101.099,-4.5384,-6.9459
1637208285886,99.9236,-4.5207,-8.946
1637208285902,100.7428,-4.822,-8.1277
1637208285916,101.7045,-2.9783,-7.5459
1637208285932,102.399,-3.0492,-7.0913
1637208285948,101.7045,-3.5633,-8.1823
1637208285962,101.3127,-4.0243,-7.6732
1637208285978,101.3127,-3.3861,-7.4004
1637208285994,100.6894,-3.3861,-8.0914
1637208286008,99.8702,-3.5279,-10.0915
1637208286024,100.6538,-3.2974,-8.1096
1637208286040,99.9771,-3.652,-6.564
1637208286054,100.9209,-4.9461,-7.8368
1637208286070,100.725,-4.6093,-7.9277
1637208286086,101.5442,-4.7157,-8.6914
1637208286100,101.2593,-3.6697,-7.0731
1637208286116,101.6689,-3.8115,-8.4368
1637208286132,102.2922,-4.2725,-8.4187
1637208286146,102.2209,-4.8398,-7.255
1637208286162,101.9716,-5.8325,-7.6186
1637208286178,100.9743,-5.4957,-6.5095
1637208286192,100.4045,-5.0525,-6.2367
1637208286208,101.4017,-4.9639,-8.3277
1637208286224,101.0812,-3.5633,-9.0551
1637208286238,101.2771,-4.0065,-7.2368
1637208286254,100.8853,-3.6165,-7.4732
1637208286270,101.4017,-4.3788,-7.2913
1637208286286,101.4908,-4.7511,-7.8004
1637208286300,102.2565,-3.5811,-7.0186
1637208286316,101.5798,-4.042,-7.3459
1637208286332,101.7401,-3.9888,-8.0186
1637208286346,100.636,-3.7229,-8.0368
1637208286362,100.5647,-2.6769,-8.2914
1637208286378,100.4045,-3.2442,-7.255
1637208286392,102.2031,-2.9429,-7.8368
1637208286408,101.0812,-3.9002,-7.6368
1637208286424,101.01,-5.5134,-9.1823
1637208286438,101.6154,-3.3683,-10.437
1637208286454,101.2237,-4.7688,-6.9459
1637208286470,100.9031,-4.8043,-8.5096
1637208286484,100.6182,-4.3256,-7.9641
1637208286500,100.173,-4.1129,-5.964
1637208286516,100.8497,-3.1733,-8.4368
1637208286530,102.4168,-2.1805,-9.7278
1637208286546,101.7223,-3.9534,-10.4006
1637208286562,101.9894,-4.9993,-9.8187
1637208286576,102.0963,-5.4071,-8.8005
1637208286592,101.7045,-4.7334,-8.4368
1637208286608,100.7963,-5.673,-8.0005
1637208286622,101.5264,-4.6802,-7.5277
1637208286638,99.9771,-4.4852,-8.1641
1637208286654,101.2058,-3.8293,-8.3096
1637208286670,102.3634,-4.3256,-8.2187
1637208286684,101.3661,-3.7229,-8.9641
1637208286700,100.3867,-3.5988,-8.5641
1637208286716,100.173,-3.7761,-7.6004
1637208286730,101.7935,-4.3079,-9.4733
1637208286746,102.025,-4.432,-6.9459
1637208286762,101.3839,-4.0243,-7.6004
1637208286776,101.2237,-3.5279,-10.0915
1637208286792,100.9387,-4.0952,-9.2914
1637208286808,100.3688,-2.801,-8.6914
1637208286822,100.351,-2.4287,-9.0005
1637208286838,100.725,-2.8719,-9.146
1637208286854,101.3839,-5.0348,-9.946
1637208286868,101.5086,-6.2048,-10.0188
1637208286884,101.4374,-5.1589,-9.8915
1637208286900,101.6511,-4.1838,-8.7641
1637208286914,101.2237,-3.847,-8.5096
1637208286930,102.025,-3.3151,-8.6187
1637208286946,101.2771,-3.7052,-8.4732
1637208286960,101.7045,-4.4675,-8.3641
1637208286976,101.3127,-3.7406,-7.6732
1637208286992,100.8319,-2.5706,-9.5642
1637208287006,100.4935,-4.2902,-10.1824
1637208287022,101.3839,-4.8043,-9.6915
1637208287038,100.5647,-5.2475,-9.2733
1637208287054,101.3127,-4.1484,-9.4915
1637208287068,100.7784,-3.6874,-9.5096
1637208287084,101.2949,-4.1129,-9.8551
1637208287100,101.3305,-3.5102,-8.746
1637208287114,101.3305,-4.3256,-8.1096
1637208287130,101.6689,-4.5916,-7.8368
1637208287146,101.7935,-3.2974,-8.4187
1637208287160,101.6689,-2.4997,-7.3641
1637208287176,100.4401,-3.7229,-7.4004
1637208287192,100.7784,-4.0775,-8.1096
1637208287206,100.2442,-4.6093,-7.8186
1637208287222,100.3688,-3.191,-7.455
1637208287238,101.1702,-2.7656,-9.2005
1637208287252,101.099,-2.411,-10.6733
1637208287268,101.2593,-3.3861,-10.837
1637208287284,101.7401,-4.7866,-9.6187
1637208287298,101.3839,-5.1234,-8.8732
1637208287314,100.5825,-4.6447,-9.9097
1637208287330,101.0456,-4.0065,-9.346
1637208287344,101.5264,-5.017,-8.4914
1637208287360,101.0812,-3.9711,-9.7278
1637208287376,100.3867,-3.9002,-9.6005
1637208287390,100.2264,-5.0525,-8.8551
1637208287406,100.9031,-4.4143,-9.146
1637208287422,100.2264,-4.2902,-9.7096
1637208287438,100.2976,-3.8115,-10.837
1637208287452,101.2949,-3.5102,-11.7643
1637208287468,101.0278,-4.1484,-8.6914
1637208287484,99.7277,-3.262,-9.2187
1637208287498,100.9743,-4.237,-8.8005
1637208287514,99.7455,-4.5029,-8.8914
1637208287530,99.6031,-4.2902,-9.6733
1637208287544,100.7963,-3.4392,-8.9278
1637208287560,101.3839,-4.8929,-9.2551
1637208287576,100.5113,-5.1766,-9.3642
1637208287590,101.2058,-4.1838,-8.1277
1637208287606,100.3688,-5.1411,-8.746
1637208287622,101.2058,-5.283,-7.6732
1637208287636,101.2058,-4.237,-8.6914
1637208287652,100.7606,-2.9251,-10.5279
1637208287668,101.4195,-3.9711,-10.2915
1637208287682,101.3839,-3.2974,-10.637
1637208287698,100.9743,-2.1451,-9.546
1637208287714,101.4195,-3.3683,-10.4551
1637208287728,102.4524,-4.6625,-9.5278
1637208287744,101.1702,-3.7052,-7.8914
1637208287760,100.3332,-3.3151,-8.9641
1637208287774,100.6538,-4.4675,-8.4368
1637208287790,100.8675,-3.7406,-10.0188
1637208287806,101.3127,-4.3611,-9.0369
1637208287822,100.4401,-4.3788,-8.5823
1637208287836,100.6716,-4.3788,-7.9641
1637208287852,100.8319,-4.3788,-8.7278
1637208287868,101.01,-4.2725,-7.8368
1637208287882,100.8497,-4.1661,-9.8369
1637208287898,100.3688,-3.6874,-9.7824
1637208287914,100.3867,-4.0065,-7.9459
1637208287928,101.4552,-4.1129,-8.9641
1637208287944,101.4017,-3.652,-6.0003
1637208287960,100.2976,-3.6874,-5.3094
1637208287974,101.5086,-2.9783,-9.7278
1637208287990,102.3634,-2.7833,-11.1825
1637208288006,101.847,-4.627,-8.6732
1637208288020,101.6689,-4.7334,-8.8914
1637208288036,101.8826,-4.822,-9.2369
1637208288052,102.8264,-4.5384,-10.0369
1637208288066,101.2415,-3.8293,-9.146
1637208288082,101.562,-3.2088,-8.746
1637208288098,101.936,-3.8293,-8.946
1637208288112,101.8648,-4.0243,-8.0368
1637208288128,100.8497,-3.7938,-8.3641
1637208288144,99.8168,-3.8115,-8.055
1637208288158,100.1373,-3.652,-9.5642
1637208288174,99.7455,-2.8542,-9.1823
1637208288190,101.4374,-4.0065,-9.6733
1637208288206,102.1675,-3.5633,-7.1822
1637208288220,100.8497,-3.7761,-6.7095
1637208288236,100.2086,-4.042,-8.1459
1637208288252,100.3332,-4.6625,-7.7095
1637208288266,99.7099,-4.8575,-6.8913
1637208288282,100.0661,-3.5102,-6.9822
1637208288298,99.4072,-4.7866,-6.564
1637208288312,100.1908,-4.1838,-7.5459
1637208288328,100.6894,-4.4497,-8.9823
1637208288344,100.8675,-3.9711,-7.855
1637208288358,101.5442,-3.4924,-6.764
1637208288374,100.9921,-3.8824,-6.7822
1637208288390,101.2593,-4.2725,-7.2913
1637208288404,101.01,-3.3329,-7.5641
1637208288420,101.5264,-3.3861,-6.9459
1637208288436,101.3839,-4.6979,-7.6186
1637208288450,101.5798,-3.7761,-7.4004
1637208288466,101.7045,-3.5988,-6.9822
1637208288482,100.9565,-4.0775,-7.1459
1637208288496,101.4374,-3.6165,-7.3459
1637208288512,101.4374,-3.0492,-7.8186
1637208288528,101.2593,-2.5351,-7.3459
1637208288542,101.0634,-2.9429,-6.9277
1637208288558,100.8319,-3.3329,-7.7459
1637208288574,100.9743,-2.4287,-8.2187
1637208288590,100.4935,-3.2797,-7.4913
1637208288604,101.2058,-4.237,-8.2732
1637208288620,101.4195,-4.2902,-8.0732
1637208288636,101.5264,-3.7938,-6.2549
1637208288650,100.9565,-4.7157,-7.8004
1637208288666,101.6511,-4.4852,-8.055
1637208288682,100.8853,-5.0348,-7.0731
1637208288696,101.5442,-4.822,-7.2186
1637208288712,101.4195,-4.5738,-7.0004
1637208288728,100.3688,-3.7583,-5.8731
1637208288742,101.0634,-3.262,-6.764
1637208288758,102.5059,-2.996,-8.8187
1637208288774,101.7935,-3.2974,-8.4732
1637208288788,100.9565,-3.4747,-7.8914
1637208288804,101.0278,-4.042,-6.5095
1637208288820,101.473,-4.2725,-6.5095
1637208288834,101.3127,-5.3539,-6.2731
1637208288850,101.562,-5.8857,-7.2004
1637208288866,100.5825,-4.2547,-6.964
1637208288880,101.0812,-2.7833,-5.1457
1637208288896,101.6333,-3.9179,-6.4913
1637208288912,101.4017,-4.432,-7.4913
1637208288926,100.6716,-2.9074,-7.2004
1637208288942,101.0278,-3.3329,-6.5276
1637208288958,101.3483,-3.1733,-8.6369
1637208288974,101.562,-4.7511,-8.6369
1637208288988,100.2976,-4.5561,-7.2186
1637208289004,100.173,-4.627,-7.3277
1637208289020,100.4757,-5.1234,-6.5276
1637208289034,101.9538,-4.3079,-7.6913
1637208289050,100.9031,-3.9534,-8.0368
1637208289066,100.6004,-4.4675,-8.3641
1637208289080,100.8497,-4.9461,-7.7277
1637208289096,99.5675,-4.5384,-8.0368
1637208289112,99.8524,-4.6802,-8.4368
1637208289126,101.3483,-3.7761,-8.1459
1637208289142,101.1524,-4.1661,-9.2551
1637208289158,100.1017,-2.8719,-9.3278
1637208289172,99.6565,-2.9251,-8.8551
1637208289188,101.3127,-4.1484,-8.4914
1637208289204,101.3483,-3.6874,-7.9277
1637208289218,100.7784,-3.4392,-8.9641
1637208289234,101.099,-3.2088,-8.3277
1637208289250,101.2237,-4.3611,-7.5641
1637208289264,100.2442,-3.9711,-8.2005
1637208289280,100.9743,-3.9534,-8.2732
1637208289296,101.188,-3.4392,-8.3641
1637208289310,101.847,-3.7406,-8.0368
1637208289326,100.6182,-3.8115,-9.3642
1637208289342,99.7277,-3.3151,-8.5641
1637208289358,100.4935,-3.262,-9.2733
1637208289372,100.4223,-4.5029,-10.146
1637208289388,100.9921,-4.3966,-8.1823
1637208289404,101.6511,-4.0243,-7.3822
1637208289418,101.4552,-4.1129,-8.8914
1637208289434,101.0634,-4.5384,-7.4004
1637208289450,99.9949,-5.9566,-7.5277
1637208289464,101.7935,-4.5738,-9.0551
1637208289480,101.3661,-3.6165,-8.746
1637208289496,100.7072,-3.4038,-7.7095
1637208289510,101.1346,-2.9251,-9.4369
1637208289526,101.3839,-3.067,-9.7642
1637208289542,101.0634,-4.0775,-9.4551
1637208289556,101.3127,-3.4038,-8.4914
1637208289572,102.4168,-3.6697,-7.855
1637208289588,101.8291,-3.652,-7.0186
1637208289602,102.2031,-3.8115,-6.6186
1637208289618,101.4374,-3.3506,-7.6732
1637208289634,100.0305,-4.0775,-8.4187
1637208289648,100.5647,-3.3506,-8.0914
1637208289664,101.3839,-3.2088,-9.3642
1637208289680,101.4017,-3.8115,-10.9461
1637208289696,101.6511,-4.5916,-9.4551
1637208289710,102.1853,-4.3256,-9.3824
1637208289726,102.2387,-3.652,-9.2005
1637208289742,100.7606,-4.0597,-7.9641
1637208289756,100.351,-2.801,-8.7823
1637208289772,100.636,-2.9783,-9.3278
1637208289788,101.5086,-2.9429,-11.0734
1637208289802,100.725,-2.7478,-10.9461
1637208289818,100.3867,-2.5174,-10.8552
1637208289834,100.5469,-4.5916,-9.4187
1637208289848,101.3661,-5.0879,-8.8551
1637208289864,101.5976,-4.1661,-9.4187
1637208289880,101.7045,-4.9816,-10.0551
1637208289894,101.6333,-3.8647,-8.946
1637208289910,100.262,-2.996,-8.8187
1637208289926,99.4428,-2.6415,-10.6915
1637208289940,100.1908,-2.4642,-10.9461
1637208289956,100.6004,-1.8969,-10.2733
1637208289972,100.1017,-2.5174,-9.1642
1637208289986,101.3305,-3.457,-10.0369
1637208290002,101.3661,-3.4392,-10.1279
1637208290018,101.9894,-3.2265,-10.5097
1637208290032,100.4757,-4.1129,-8.6914
1637208290048,100.1195,-3.9534,-8.2005
1637208290064,99.8702,-4.2015,-8.9278
1637208290080,99.799,-4.3966,-9.9642
1637208290094,100.5825,-4.1838,-10.0733
1637208290110,101.3483,-3.7052,-10.7643
1637208290126,100.5469,-4.6093,-9.4915
1637208290140,100.173,-4.4497,-8.2005
1637208290156,100.9565,-3.9179,-9.746
1637208290172,100.1908,-4.627,-8.8369
1637208290186,101.2593,-5.1766,-8.655
1637208290202,101.7223,-4.822,-8.3459
1637208290218,100.8497,-5.1234,-8.1096
1637208290232,101.473,-3.2797,-8.5096
1637208290248,102.4703,-3.7229,-9.9097
1637208290264,101.2949,-5.0879,-10.0188
1637208290278,101.0278,-4.4143,-9.4915
1637208290294,101.1702,-3.6874,-8.6005
1637208290310,100.6894,-4.3966,-9.8006
1637208290324,99.9058,-4.1306,-10.3279
1637208290340,100.1551,-3.3506,-8.8187
1637208290356,100.4223,-3.2442,-9.6733
1637208290370,99.7277,-4.4675,-8.8187
1637208290386,100.5469,-3.8293,-9.4005
1637208290402,101.099,-4.1129,-9.146
1637208290416,100.4579,-4.2725,-8.6187
1637208290432,101.0278,-4.6802,-9.2733
1637208290448,100.2976,-4.9461,-9.1642
1637208290464,101.188,-4.8398,-7.6368
1637208290478,100.7428,-4.3079,-7.8004
1637208290494,100.4401,-4.432,-8.5278
1637208290510,100.4401,-5.0879,-10.1824
1637208290524,101.099,-2.5528,-9.4369
1637208290540,101.3661,-2.3224,-9.5642
1637208290556,100.4401,-2.8365,-8.6732
1637208290570,100.8319,-3.3151,-7.2913
1637208290586,101.5442,-4.3256,-7.9095
1637208290602,102.0785,-4.042,-8.255
1637208290616,102.0607,-4.2902,-8.8914
1637208290632,101.8291,-4.0952,-9.8551
1637208290648,100.8141,-4.9639,-8.8005
1637208290662,101.0634,-4.9993,-9.1278
1637208290678,100.6182,-3.2265,-9.5278
1637208290694,100.5825,-3.1379,-9.9097
1637208290708,101.8826,-3.7583,-8.9823
1637208290724,102.4524,-4.1306,-10.2006
1637208290740,102.5593,-4.822,-9.8551
1637208290754,101.5264,-4.8929,-7.4732
1637208290770,101.01,-3.8293,-7.8732
1637208290786,101.1168,-3.2442,-8.9096
1637208290800,101.0278,-3.457,-9.4187
1637208290816,101.8291,-4.1129,-9.0187
1637208290832,102.2387,-4.6093,-8.946
1637208290848,101.1346,-5.0525,-9.2551
1637208290862,100.8319,-5.1234,-8.4187
1637208290878,100.1551,-4.4852,-9.746
1637208290894,100.2442,-4.2725,-10.6733
1637208290908,100.2442,-5.7262,-8.8369
1637208290924,102.0785,-5.3539,-8.4732
1637208290940,101.7757,-5.4248,-7.1095
1637208290954,100.6894,-4.2547,-6.2549
1637208290970,101.5264,-3.3151,-8.746
1637208290986,101.8113,-3.6342,-10.4006
1637208291000,101.7045,-5.017,-8.1096
1637208291016,101.099,-5.0525,-8.2187
1637208291032,100.3688,-5.5489,-9.6005
1637208291046,101.9182,-4.3788,-8.2187
1637208291062,101.8648,-3.3329,-8.9641
1637208291078,101.4017,-2.6238,-9.4915
1637208291092,101.1346,-2.2337,-8.8914
1637208291108,100.2976,-3.7229,-8.0186
1637208291124,100.0305,-5.2652,-9.2551
1637208291138,100.9743,-3.2088,-8.9096
1637208291154,101.7223,-3.6165,-7.7277
1637208291170,101.9182,-3.2797,-7.2004
1637208291184,101.9894,-2.8365,-7.2368
1637208291200,101.6689,-4.0775,-7.0186
1637208291216,100.0127,-5.1057,-7.7095
1637208291232,99.7634,-4.5738,-9.6551
1637208291246,100.9921,-3.7229,-10.2915
1637208291262,100.7963,-2.8365,-10.0006
1637208291278,101.0456,-3.7406,-9.9278
1637208291292,103.4141,-3.5633,-9.0187
1637208291308,102.3456,-4.5738,-7.8186
1637208291324,100.9921,-4.627,-6.6004
1637208291338,100.4757,-4.3611,-5.3094
1637208291354,100.9743,-4.5207,-7.0368
1637208291370,100.7606,-3.9179,-7.7095
1637208291384,102.1319,-2.8542,-8.1277
1637208291400,102.2387,-4.2902,-8.8369
1637208291416,101.4017,-4.5207,-7.5459
1637208291430,100.8497,-4.7157,-7.2368
1637208291446,100.0305,-4.0065,-7.7823
1637208291462,100.262,-2.8188,-8.3459
1637208291476,102.0072,-3.7229,-8.255
1637208291492,101.8113,-3.7938,-7.7641
1637208291508,102.31,-4.0775,-7.9823
1637208291522,101.2415,-4.1129,-7.3641
1637208291538,100.5647,-3.9711,-7.855
1637208291554,100.3688,-3.9534,-9.1278
1637208291568,100.7606,-3.0847,-8.455
1637208291584,101.4017,-4.4497,-8.2368
1637208291600,100.8141,-4.2193,-7.6913
1637208291616,101.1524,-5.3007,-8.5823
1637208291630,101.5798,-3.6342,-8.0914
1637208291646,100.1908,-4.3611,-7.255
1637208291662,101.2771,-3.9534,-6.5095
1637208291676,102.0428,-3.5988,-7.3277
1637208291692,101.099,-4.2193,-7.3641
1637208291708,101.7579,-3.2797,-8.6914
1637208291722,102.1141,-3.2974,-9.8187
1637208291738,101.188,-3.6342,-10.1642
1637208291754,101.1702,-4.5207,-8.8369
1637208291768,102.0963,-5.3361,-7.0004
1637208291784,101.7935,-3.9179,-7.7095
1637208291800,101.7935,-3.6874,-8.5278
1637208291814,100.725,-3.7229,-8.6914
1637208291830,101.2593,-3.847,-8.6732
1637208291846,101.0634,-4.822,-8.7823
1637208291860,101.2593,-3.7229,-7.0004
1637208291876,100.4223,-4.5029,-6.6004
1637208291892,100.2086,-4.6802,-7.255
1637208291906,100.4223,-4.0065,-7.0913
1637208291922,100.7963,-2.9429,-8.0914
1637208291938,100.8853,-3.4924,-8.1096
1637208291952,101.2949,-3.9179,-8.2732
1637208291968,101.5442,-3.2442,-8.4914
1637208291984,100.8319,-3.2974,-8.4914
1637208292000,100.7428,-3.3861,-8.5823
1637208292014,100.636,-4.0243,-8.2732
1637208292030,101.3661,-5.3716,-7.2913
1637208292046,101.8648,-6.1516,-8.0914
1637208292060,101.099,-5.283,-8.4005
1637208292076,100.1908,-3.5988,-8.9823
1637208292092,99.2291,-4.237,-8.0732
1637208292106,100.9387,-3.4215,-8.0914
1637208292122,103.236,-3.2265,-9.8187
1637208292138,101.7223,-4.8398,-10.2006
1637208292152,101.3127,-5.4957,-9.3642
1637208292168,100.5469,-5.2475,-8.4368
1637208292184,99.8346,-4.3079,-7.4004
1637208292198,99.9593,-3.0847,-7.9823
1637208292214,101.1702,-2.6238,-8.746
1637208292230,102.0428,-3.3151,-9.3278
1637208292244,101.2771,-2.7833,-8.746
1637208292260,101.188,-3.262,-8.0914
1637208292276,100.3688,-4.042,-7.0368
1637208292290,100.6538,-4.237,-7.1095
1637208292306,102.5593,-3.0847,-9.8187
1637208292322,102.5771,-3.262,-8.6369
1637208292336,101.3305,-3.847,-7.164
1637208292352,100.8675,-4.2902,-7.8732
1637208292368,100.351,-4.2902,-8.055
1637208292384,98.8729,-3.2265,-7.8914
1637208292398,98.6948,-3.1379,-8.9096
1637208292414,101.0278,-3.4747,-9.8369
1637208292430,102.2031,-3.847,-10.0733
1637208292444,101.7935,-3.9002,-7.8732
1637208292460,101.5086,-4.2193,-8.455
1637208292476,101.2237,-4.042,-7.3822
1637208292490,101.6867,-3.847,-7.6186
1637208292506,100.9921,-4.8398,-8.0914
1637208292522,101.4374,-3.9002,-8.455
1637208292536,102.3634,-3.4038,-7.9095
1637208292552,101.4017,-3.7583,-7.0368
1637208292568,100.5647,-5.017,-7.5641
1637208292582,101.188,-4.5738,-7.6186
1637208292598,101.3839,-3.5456,-8.455
1637208292614,101.6867,-3.9711,-9.6369
1637208292628,101.4195,-4.0775,-7.3641
1637208292644,100.3867,-4.3256,-6.4004
1637208292660,102.0428,-3.3506,-8.4187
1637208292674,101.5798,-3.9711,-7.9641
1637208292690,101.2058,-3.9888,-7.3641
1637208292706,100.6716,-3.191,-8.1641
1637208292720,101.5798,-3.1024,-8.6187
1637208292736,100.8675,-3.4392,-7.6732
1637208292752,100.5291,-3.0315,-6.8186
1637208292768,102.3634,-3.4038,-7.0186
1637208292782,101.4017,-4.1838,-6.764
1637208292798,101.5086,-4.7157,-7.4186
1637208292814,102.3812,-3.9002,-7.4368
1637208292828,102.3634,-2.8188,-7.0549
1637208292844,102.4703,-4.3966,-6.4549
1637208292860,101.7935,-5.7084,-7.164
1637208292874,101.7401,-4.4675,-6.6549
1637208292890,101.5798,-3.0315,-6.2913
1637208292906,102.0785,-3.652,-7.4732
1637208292920,101.3483,-2.3224,-7.4368
1637208292936,101.473,-2.021,-8.6914
1637208292952,101.7579,-3.1379,-7.5459
1637208292966,101.5798,-3.9002,-7.455
1637208292982,100.9031,-3.1733,-8.455
1637208292998,101.1702,-2.6238,-8.1459
1637208293012,100.6182,-3.191,-7.5277
1637208293028,101.7223,-3.2974,-8.9278
1637208293044,101.3305,-4.7157,-7.5277
1637208293058,100.9387,-4.627,-7.3459
1637208293074,101.9716,-3.457,-8.3277
1637208293090,100.8675,-3.1024,-8.655
1637208293104,101.2771,-3.8647,-7.6004
1637208293120,101.4552,-3.1556,-8.1823
1637208293136,100.7963,-4.1306,-8.5823
1637208293152,101.4017,-4.0952,-7.2913
1637208293166,101.9716,-4.3256,-7.3459
1637208293182,101.3661,-3.4924,-6.6367
1637208293198,100.2798,-3.847,-7.0368
1637208293212,100.9209,-3.9888,-6.7822
1637208293228,101.5798,-4.0243,-6.1094
1637208293244,101.2771,-3.262,-7.0368
1637208293258,101.4195,-3.1556,-7.6186
1637208293274,102.2209,-3.6342,-8.055
1637208293290,100.3867,-4.9993,-7.1822
1637208293304,99.8702,-3.4392,-7.2368
1637208293320,100.5647,-3.1556,-8.3823
1637208293336,101.0634,-3.652,-8.1096
1637208293350,101.1168,-3.8647,-7.9277
1637208293366,101.01,-4.5561,-7.455
1637208293382,100.1195,-4.1306,-8.1641
1637208293396,100.4401,-2.996,-7.8004
1637208293412,101.7757,-4.1661,-8.7278
1637208293428,101.3127,-4.8575,-9.1642
1637208293442,100.5291,-4.2725,-8.2368
1637208293458,99.8346,-3.652,-8.6732
1637208293474,100.4579,-3.4747,-8.6914
1637208293488,101.5264,-3.9356,-7.4368
1637208293504,100.9921,-4.042,-8.2368
1637208293520,101.9182,-5.1943,-8.6005
1637208293536,101.2593,-4.822,-8.6369
1637208293550,102.1675,-4.8752,-8.6005
1637208293566,102.4881,-4.5207,-9.4187
1637208293582,102.31,-4.042,-8.1459
1637208293596,101.847,-3.1556,-7.3459
1637208293612,101.473,-3.7761,-8.2914
1637208293628,101.5442,-4.7866,-7.2186
1637208293642,101.4195,-4.6447,-7.1822
1637208293658,102.1853,-5.0702,-6.7277
1637208293674,101.7579,-4.4852,-8.4187
1637208293688,101.2949,-4.2902,-7.2913
1637208293704,101.6154,-3.7583,-7.5277
1637208293720,101.9004,-3.5633,-7.5641
1637208293734,100.5469,-4.0775,-7.0368
1637208293750,100.7963,-3.8647,-7.4368
1637208293766,101.8291,-3.3683,-8.5096
1637208293780,101.8113,-4.6447,-9.2551
1637208293796,101.0456,-5.2652,-8.6369
1637208293812,100.9743,-4.627,-7.4732
1637208293826,100.4579,-5.3539,-8.655
1637208293842,101.2593,-4.822,-8.6187
1637208293858,100.7784,-3.9888,-8.0914
1637208293872,100.8675,-3.4392,-7.7277
1637208293888,101.0456,-3.4924,-7.9641
1637208293904,101.3483,-4.1306,-7.455
1637208293920,100.4757,-4.0243,-8.7278
1637208293934,100.0839,-3.8293,-10.3279
1637208293950,102.399,-5.0525,-10.5461
1637208293966,102.025,-5.3007,-7.3641
1637208293980,101.562,-4.432,-7.8004
1637208293996,101.2415,-3.652,-9.4733
1637208294012,100.8675,-4.5561,-8.2732
1637208294026,101.6689,-3.5811,-8.5278
1637208294042,101.1168,-3.5279,-9.9278
1637208294058,100.6894,-3.652,-10.0733
1637208294072,101.188,-3.067,-9.4733
1637208294088,101.5086,-3.8824,-8.8732
1637208294104,101.2593,-4.9107,-10.4188
1637208294118,100.4757,-4.0597,-10.3279
1637208294134,99.7812,-4.5916,-9.746
1637208294150,101.2237,-4.4497,-10.0188
1637208294164,102.684,-4.6625,-10.0733
1637208294180,102.9155,-3.7229,-10.0369
1637208294196,103.1292,-3.457,-10.2915
1637208294210,102.9155,-3.5633,-9.4915
1637208294226,101.0812,-3.6874,-8.8914
1637208294242,100.7963,-3.9711,-9.7278
1637208294256,101.5976,-3.1379,-9.8915
1637208294272,100.8319,-2.4287,-9.8006
1637208294288,101.3127,-3.1201,-9.146
1637208294304,101.188,-3.5633,-9.0732
1637208294318,101.7223,-4.5207,-8.7641
1637208294334,100.0127,-3.4392,-9.3824
1637208294350,100.8141,-4.9284,-8.8187
1637208294364,100.9031,-3.847,-8.6369
1637208294380,100.2264,-3.9356,-9.0551
1637208294396,99.7634,-3.652,-8.8187
1637208294410,99.3894,-4.1306,-7.3095
1637208294426,100.1195,-5.3539,-6.8186
1637208294442,101.2415,-3.4924,-9.2369
1637208294456,101.2771,-2.6592,-10.6915
1637208294472,101.3127,-3.3861,-10.5461
1637208294488,101.099,-3.5102,-8.8369
1637208294502,101.2058,-3.2265,-7.7823
1637208294518,100.4579,-4.5916,-8.9278
1637208294534,102.0607,-5.0879,-9.7278
1637208294548,101.9182,-4.6625,-9.4369
1637208294564,101.0634,-4.0952,-8.6187
1637208294580,100.173,-4.3611,-8.1277
1637208294594,100.636,-4.4675,-8.3459
1637208294610,99.8168,-4.4852,-7.9641
1637208294626,100.8853,-4.2193,-9.1278
1637208294640,100.725,-4.5029,-8.0914
1637208294656,99.9058,-3.6874,-6.3458
1637208294672,99.9414,-4.4497,-8.6732
1637208294688,101.2237,-4.3079,-8.6914
1637208294702,100.725,-3.9356,-8.9641
1637208294718,99.6921,-3.5102,-9.8733
1637208294734,100.3688,-3.067,-9.2187
1637208294748,100.8319,-2.9429,-9.0551
1637208294764,101.0634,-3.9179,-9.0732
1637208294780,101.1346,-5.0525,-9.3824
1637208294794,101.6511,-4.5029,-8.6732
1637208294810,101.3127,-3.8647,-7.8004
1637208294826,101.2415,-4.2725,-7.5641
1637208294840,101.1168,-3.8293,-8.3641
1637208294856,100.3332,-3.2442,-8.4005
1637208294872,100.6538,-3.4392,-8.655
1637208294886,100.6716,-3.5279,-8.8914
1637208294902,100.5113,-4.0597,-9.6551
1637208294918,100.7428,-3.652,-7.8732
1637208294932,101.2237,-2.5528,-7.5095
1637208294948,101.099,-4.042,-8.7641
1637208294964,101.099,-4.1838,-9.746
1637208294978,101.6511,-3.9356,-9.346
1637208294994,102.0428,-3.7583,-7.7641
1637208295010,101.9182,-3.652,-7.8732
1637208295024,100.3867,-4.2193,-7.4186
1637208295040,100.1195,-3.8647,-8.655
1637208295056,99.888,-3.1556,-10.346
1637208295072,99.6387,-5.0879,-8.8914
1637208295086,100.4757,-4.8575,-7.9641
1637208295102,100.8141,-3.1024,-7.855
1637208295118,100.5291,-4.2193,-7.7277
1637208295132,100.9565,-3.7761,-7.5277
1637208295148,101.3305,-3.6165,-11.1279
1637208295164,102.2922,-2.8719,-10.4188
1637208295178,102.5237,-3.5279,-8.4732
1637208295194,102.31,-3.3151,-8.746
1637208295210,101.3661,-4.1838,-7.655
1637208295224,101.2415,-4.3966,-8.2368
1637208295240,100.1195,-2.6947,-8.746
1637208295256,100.5647,-3.6165,-8.3823
1637208295270,101.6333,-3.7583,-8.4732
1637208295286,100.9031,-2.8542,-8.5823
1637208295302,101.3839,-3.2265,-8.6914
1637208295316,100.9387,-3.652,-7.6913
1637208295332,100.9031,-3.8824,-7.8914
1637208295348,102.0785,-3.8293,-8.7278
1637208295362,101.5798,-2.2515,-7.0368
1637208295378,101.1346,-3.3151,-8.4005
1637208295394,102.025,-3.8824,-8.4187
1637208295408,101.562,-4.8929,-8.6187
1637208295424,100.6538,-3.9711,-8.4914
1637208295440,100.9921,-4.3966,-8.055
1637208295456,102.8264,-3.6697,-8.0914
1637208295470,102.2922,-3.5279,-7.6004
1637208295486,101.6154,-4.4852,-8.0186
1637208295502,101.7935,-4.1661,-6.5276
1637208295516,101.4908,-3.7583,-7.9641
1637208295532,100.6538,-2.7656,-7.6368
1637208295548,100.8675,-2.6769,-8.0914
1637208295562,101.0278,-3.9888,-8.1459
1637208295578,101.7045,-4.237,-8.7823
1637208295594,100.9743,-4.5561,-6.8731
1637208295608,102.0785,-4.8929,-6.3458
1637208295624,101.5264,-3.4038,-6.6913
1637208295640,101.2949,-2.8188,-7.6004
1637208295654,102.1141,-3.5633,-6.6731
1637208295670,101.7045,-4.2015,-7.6732
1637208295686,101.6333,-4.432,-7.0004
1637208295700,101.2593,-3.9534,-5.8367
1637208295716,101.6333,-3.8115,-5.9276
1637208295732,101.5798,-3.847,-6.8549
1637208295746,102.2209,-3.5988,-7.2731
1637208295762,102.684,-4.1129,-6.9822
1637208295778,102.1141,-3.7938,-7.9823
1637208295792,101.7757,-3.9888,-7.9095
1637208295808,102.0607,-4.237,-5.3458
1637208295824,102.9689,-5.1589,-5.3458
1637208295840,101.5798,-4.6093,-6.6913
1637208295854,100.8141,-2.4465,-7.4004
1637208295870,100.6004,-4.1838,-8.0914
1637208295886,101.3127,-3.6874,-8.455
1637208295900,102.4346,-4.0065,-6.164
1637208295916,102.2031,-3.5988,-4.9094
1637208295932,101.9538,-4.6093,-5.7458
1637208295946,102.1675,-4.4143,-7.2731
1637208295962,102.0607,-5.1943,-7.9459
1637208295978,101.4374,-5.6375,-6.8913
1637208295992,101.8291,-4.7688,-6.3276
1637208296008,99.6209,-5.4425,-7.3822
1637208296024,99.4962,-4.7157,-8.0732
1637208296038,100.5825,-3.5456,-6.6004
1637208296054,101.4374,-4.1129,-7.1459
1637208296070,102.1675,-4.4852,-8.8187
1637208296084,101.1524,-4.0597,-6.364
1637208296100,99.9414,-3.8293,-6.0731
1637208296116,101.1168,-3.262,-6.1276
1637208296130,101.2058,-4.6979,-6.9459
1637208296146,101.01,-4.6447,-7.5641
1637208296162,100.9921,-4.3788,-8.0368
1637208296176,101.5264,-2.8542,-7.5823
1637208296192,101.8826,-3.9888,-8.1459
1637208296208,101.8291,-4.2902,-7.0004
1637208296224,100.9565,-4.0597,-6.9095
1637208296238,100.5469,-3.6165,-7.3822
1637208296254,101.3483,-3.0315,-7.9823
1637208296270,100.9209,-3.7052,-6.4549
1637208296284,101.3127,-3.2442,-6.4367
1637208296300,102.5949,-2.3046,-7.655
1637208296316,102.1319,-3.1733,-6.5822
1637208296330,100.7606,-4.2015,-7.2368
1637208296346,100.5469,-4.237,-7.0004
1637208296362,101.3127,-3.2974,-8.1096
1637208296376,102.2031,-2.6238,-6.6913
1637208296392,102.5771,-3.3506,-7.1095
1637208296408,102.4524,-3.4392,-5.7276
1637208296422,101.8648,-3.3506,-5.5276
1637208296438,101.1168,-3.6697,-6.7095
1637208296454,99.9771,-4.5738,-8.0732
1637208296468,100.6538,-4.5207,-8.0368
1637208296484,101.0812,-3.0138,-7.7095
1637208296500,101.5442,-3.2265,-8.7278
1637208296514,101.7401,-3.7229,-8.0914
1637208296530,102.2387,-3.9711,-6.4731
1637208296546,101.7579,-3.2088,-7.5823
1637208296560,99.9593,-3.8824,-7.0004
1637208296576,99.7277,-4.8043,-6.964
1637208296592,100.7606,-3.5279,-8.2368
1637208296608,101.2771,-3.2265,-10.0915
1637208296622,100.3332,-3.2974,-10.3279
1637208296638,100.9387,-4.8398,-8.8732
1637208296654,100.4935,-4.8929,-7.3095
1637208296668,100.6538,-4.5207,-6.9277
1637208296684,100.1551,-4.1838,-7.7459
1637208296700,100.2976,-3.8293,-8.5278
1637208296714,100.6182,-3.0847,-8.4187
1637208296730,101.6333,-2.9783,-9.0732
1637208296746,100.8319,-3.1556,-10.3097
1637208296760,100.8675,-3.5456,-9.6369
1637208296776,101.7935,-3.5279,-9.9642
1637208296792,102.0963,-3.4038,-10.8552
1637208296806,101.9538,-4.4852,-8.1096
1637208296822,101.2058,-4.6625,-8.0732
1637208296838,100.5469,-4.2902,-7.7277
1637208296852,101.5086,-4.2902,-8.1277
1637208296868,100.5113,-3.1379,-8.0186
1637208296884,101.7757,-3.3151,-7.855
1637208296898,101.188,-3.5811,-8.4368
1637208296914,101.0456,-4.8043,-8.6005
1637208296930,100.6538,-4.8398,-8.8914
1637208296944,101.3127,-4.237,-8.3459
1637208296960,101.0634,-4.042,-9.546
1637208296976,100.8319,-3.7052,-9.5642
1637208296992,101.4552,-2.9606,-10.5279
1637208297006,101.2415,-3.5988,-10.346
1637208297022,100.4045,-4.3079,-8.8551
1637208297038,99.9771,-3.8647,-9.146
1637208297052,100.4045,-3.1201,-8.8005
1637208297068,100.5113,-4.1129,-10.2188
1637208297084,100.5291,-4.7157,-10.4188
1637208297098,100.4401,-4.7511,-10.0733
1637208297114,100.2264,-4.4143,-9.6551
1637208297130,101.3127,-4.0775,-9.5278
1637208297144,101.7401,-2.9783,-9.3642
1637208297160,101.5442,-3.2265,-9.3278
1637208297176,101.4374,-2.5351,-9.146
1637208297190,99.9771,-4.2193,-7.9095
1637208297206,99.5318,-4.2015,-8.7278
1637208297222,100.8675,-3.262,-10.1642
1637208297236,100.9921,-3.652,-9.2733
1637208297252,100.2086,-3.6697,-9.8369
1637208297268,100.8319,-3.6697,-8.6369
1637208297282,100.173,-4.1484,-8.1096
1637208297298,100.5647,-2.6769,-8.5278
1637208297314,102.4346,-3.4924,-9.5278
1637208297328,101.2058,-3.4038,-10.146
1637208297344,100.3867,-3.9711,-9.5642
1637208297360,101.936,-4.9284,-8.8551
1637208297376,101.1168,-4.6625,-9.9278
1637208297390,100.7963,-4.3611,-9.0005
1637208297406,100.6716,-4.8575,-9.4733
1637208297422,99.7634,-5.4957,-9.946
1637208297436,99.6565,-4.3788,-9.4187
1637208297452,99.888,-4.2015,-8.7278
1637208297468,101.0278,-4.627,-9.7278
1637208297482,102.2031,-3.5633,-8.8732
1637208297498,101.4374,-3.2797,-10.5461
1637208297514,100.6894,-3.7052,-10.9461
1637208297528,101.188,-3.9002,-8.1096
1637208297544,100.7428,-2.5528,-7.6368
1637208297560,100.0305,-3.3861,-8.0186
1637208297574,99.7634,-3.8647,-9.0914
1637208297590,100.8497,-3.5102,-10.0006
1637208297606,100.8497,-3.6342,-10.3097
1637208297620,100.8319,-3.8115,-9.4005
1637208297636,101.6333,-4.3788,-8.5278
1637208297652,101.5264,-4.237,-7.5459
1637208297666,101.4374,-3.5279,-8.1459
1637208297682,101.3127,-3.4215,-8.6914
1637208297698,100.7606,-3.9888,-8.8914
1637208297712,100.173,-2.6769,-8.5459
1637208297728,100.8675,-3.7761,-9.4551
1637208297744,100.1908,-4.3079,-8.6732
1637208297760,99.6921,-3.3861,-8.6187
1637208297774,100.7428,-3.9002,-8.7823
1637208297790,101.6511,-4.1306,-9.5096
1637208297806,100.173,-3.9888,-8.7641
1637208297820,101.0278,-3.2442,-9.1096
1637208297836,101.2237,-3.5456,-9.3278
1637208297852,102.0785,-3.8647,-8.9278
1637208297866,101.9182,-3.5279,-8.7096
1637208297882,100.9921,-4.4497,-8.946
1637208297898,100.8497,-4.1484,-8.4914
1637208297912,99.799,-5.7262,-7.7459
1637208297928,101.0456,-4.3434,-8.4368
1637208297944,101.2949,-3.8824,-9.2733
1637208297958,102.0072,-4.7334,-8.1096
1637208297974,102.2744,-4.4852,-6.9459
1637208297990,101.4017,-5.3893,-7.6004
1637208298004,100.6894,-4.8575,-6.8186
1637208298020,101.7401,-3.3329,-7.0004
1637208298036,101.9004,-3.5456,-8.6187
1637208298050,102.2387,-4.9461,-7.5823
1637208298066,101.7935,-4.4143,-7.5095
1637208298082,101.4017,-4.4852,-8.4005
1637208298096,101.0634,-4.5384,-9.3278
1637208298112,100.4579,-5.017,-7.9641
1637208298128,100.9209,-5.4602,-8.3096
1637208298144,100.7963,-4.9284,-7.255
1637208298158,100.6716,-3.3151,-7.3459
1637208298174,101.2237,-2.7833,-7.1459
1637208298190,100.0305,-4.2547,-8.3277
1637208298204,101.1524,-4.1306,-7.7459
1637208298220,101.9716,-4.2015,-9.0369
1637208298236,101.6154,-3.8824,-9.8369
1637208298250,101.9182,-4.9993,-7.9823
1637208298266,101.6154,-4.2193,-7.4368
1637208298282,101.5086,-3.5988,-9.0551
1637208298296,101.5976,-4.8752,-8.6914
1637208298312,101.2771,-4.1484,-8.3277
1637208298328,100.4935,-2.9606,-6.764
1637208298342,101.2237,-4.0775,-7.1822
1637208298358,100.9743,-5.6552,-6.8731
1637208298374,101.473,-5.4425,-6.9822
1637208298388,101.7045,-4.3966,-7.9459
1637208298404,102.0428,-3.4924,-7.9277
1637208298420,101.2949,-3.9888,-7.0549
1637208298434,102.5771,-3.5279,-7.0913
1637208298450,102.1853,-2.5174,-7.3277
1637208298466,101.562,-2.8542,-6.9095
1637208298480,101.3305,-2.6415,-7.7641
1637208298496,100.8853,-1.436,-7.6368
1637208298512,101.9182,-2.3756,-7.855
1637208298528,101.8113,-3.9179,-7.8186
1637208298542,101.4374,-3.191,-7.0549
1637208298558,101.2058,-3.0315,-7.0186
1637208298574,101.8648,-4.237,-7.2913
1637208298588,101.1524,-4.6802,-6.6367
1637208298604,101.2771,-5.6198,-6.7277
1637208298620,100.5469,-5.4425,-6.8004
1637208298634,100.4757,-4.2015,-6.0185
1637208298650,100.8319,-3.457,-6.6913
1637208298666,100.9921,-3.5102,-6.4549
1637208298680,102.31,-3.3861,-7.1277
1637208298696,101.6333,-3.4924,-8.1823
1637208298712,101.099,-3.9711,-7.655
1637208298726,101.7757,-4.042,-7.4186
1637208298742,101.8648,-4.3256,-6.2549
1637208298758,101.7579,-4.627,-6.7822
1637208298772,102.6483,-3.1201,-6.8004
1637208298788,103.0223,-2.7124,-7.1277
1637208298804,101.5086,-3.1201,-7.655
1637208298818,101.6689,-3.191,-7.5641
1637208298834,101.1702,-4.3256,-6.6004
1637208298850,101.4552,-3.9711,-6.4367
1637208298864,101.7757,-3.7761,-6.2549
1637208298880,101.188,-4.0952,-7.1459
1637208298896,100.6182,-4.8929,-8.8732
1637208298912,100.0127,-5.0348,-7.655
1637208298926,99.1935,-5.1766,-6.964
1637208298942,100.1908,-3.7406,-5.6185
1637208298958,100.8319,-4.237,-7.8368
1637208298972,101.2771,-4.432,-7.0913
1637208298988,101.3839,-4.2725,-8.1277
1637208299004,100.2798,-4.822,-6.9459
1637208299018,100.6716,-4.6093,-7.6004
1637208299034,101.7223,-3.7406,-7.6368
1637208299050,101.6511,-2.3401,-7.455
1637208299064,100.8675,-3.6165,-7.5641
1637208299080,100.173,-3.8115,-7.9459
1637208299096,100.6716,-4.7866,-7.7459
1637208299110,100.5469,-4.9993,-7.9823
1637208299126,100.5113,-4.1484,-7.455
1637208299142,101.188,-4.7688,-7.2731
1637208299156,101.6689,-4.9107,-7.6732
1637208299172,101.8291,-4.2725,-7.2913
1637208299188,101.3483,-3.9534,-8.5459
1637208299202,101.6689,-3.5279,-7.8732
1637208299218,101.1346,-3.847,-7.5823
1637208299234,101.2237,-4.6093,-6.9095
1637208299248,101.3839,-4.1306,-7.0913
1637208299264,101.3661,-4.0775,-6.9277
1637208299280,101.4195,-3.5988,-7.8004
1637208299296,101.0634,-3.3683,-8.1641
1637208299310,101.1702,-3.8293,-7.8186
1637208299326,101.5086,-3.1556,-8.3823
1637208299342,100.725,-4.432,-7.6368
1637208299356,101.2237,-3.1379,-7.5095
1637208299372,100.8319,-2.3224,-9.8006
1637208299388,101.1346,-3.8647,-9.8733
1637208299402,102.3634,-3.652,-7.5277
1637208299418,102.025,-3.7406,-6.564
1637208299434,100.2798,-4.0952,-8.3641
1637208299448,100.1373,-4.6625,-7.5823
1637208299464,100.9565,-4.6093,-7.5095
1637208299480,100.0661,-5.478,-6.9095
1637208299494,100.636,-5.4602,-7.7641
1637208299510,100.8497,-4.4852,-7.455
1637208299526,100.3332,-4.5384,-6.7458
1637208299540,102.2922,-3.7938,-8.2914
1637208299556,102.025,-3.5988,-9.2551
1637208299572,101.6333,-4.0597,-7.8914
1637208299586,102.2922,-3.7583,-7.5095
1637208299602,101.3839,-4.7511,-6.764
1637208299618,100.9031,-4.7866,-8.4368
1637208299632,101.0812,-3.6874,-8.5278
1637208299648,102.2031,-2.5706,-7.855
1637208299664,101.0278,-2.6238,-7.4368
1637208299680,100.1195,-3.8824,-8.1096
1637208299694,100.7428,-5.1057,-8.7641
1637208299710,101.1524,-4.2547,-8.5641
1637208299726,101.5086,-5.1766,-8.5641
1637208299740,101.1702,-5.1411,-9.0551
1637208299756,100.9565,-4.6447,-7.9095
1637208299772,100.1195,-4.1661,-6.8004
1637208299786,100.3154,-4.2193,-8.8732
1637208299802,100.6182,-4.1129,-8.9641
1637208299818,100.6004,-3.9534,-9.2369
1637208299832,101.1702,-2.7301,-8.5641
1637208299848,100.6716,-2.8188,-9.4551
1637208299864,100.9031,-3.9711,-8.7641
1637208299878,100.9031,-3.2797,-7.164
1637208299894,101.5086,-3.067,-9.346
1637208299910,101.1346,-3.4215,-9.3278
1637208299924,100.8141,-4.0597,-9.1278
1637208299940,101.2237,-4.2725,-9.6733
1637208299956,101.2949,-3.3329,-8.9096
1637208299970,101.0812,-2.7124,-9.946
1637208299986,101.2593,-3.3329,-9.6369
1637208300002,101.2058,-3.1379,-10.4733
1637208300016,101.4195,-4.4143,-9.7278
1637208300032,101.8826,-4.0775,-8.8914
1637208300048,101.8291,-3.4038,-7.6004
1637208300064,102.0428,-3.1379,-8.8914
1637208300078,101.1702,-3.4392,-8.5278
1637208300094,100.9387,-3.7229,-8.8187
1637208300110,100.7963,-3.6342,-9.2733
1637208300124,100.725,-3.6874,-8.8005
1637208300140,100.2798,-3.3151,-8.9096
1637208300156,101.099,-4.0065,-7.9277
1637208300170,101.4017,-3.847,-7.6004
1637208300186,101.7579,-2.7301,-8.4732
1637208300202,102.9511,-3.9888,-9.8551
1637208300216,101.1346,-4.7866,-9.1823
1637208300232,101.6511,-4.2015,-9.0551
1637208300248,101.7579,-4.0597,-8.7823
1637208300262,101.099,-3.7938,-6.8549
1637208300278,100.3154,-3.5633,-8.455
1637208300294,100.5291,-3.067,-9.946
1637208300308,101.3127,-4.432,-9.8369
1637208300324,101.188,-4.3788,-9.1642
1637208300340,100.1551,-5.478,-9.146
1637208300354,100.5113,-5.3716,-8.3459
1637208300370,101.0456,-5.017,-9.0187
1637208300386,100.636,-3.9179,-8.4732
1637208300400,100.4579,-3.9711,-9.146
1637208300416,100.4935,-3.8824,-7.5459
1637208300432,99.6565,-3.3683,-8.6732
1637208300448,100.4579,-3.4924,-8.4914
1637208300462,99.9058,-4.3079,-8.3096
1637208300478,100.7784,-5.3361,-8.8914
1637208300494,101.4017,-5.1943,-10.1824
1637208300508,100.3688,-4.3434,-8.5278
1637208300524,99.6921,-5.1766,-7.655
1637208300540,100.4579,-3.9356,-8.8005
1637208300554,99.8346,-3.4924,-10.6006
1637208300570,99.9414,-4.3256,-10.1642
1637208300586,101.0634,-3.5633,-9.3642
1637208300600,101.8113,-4.3079,-8.6005
1637208300616,101.01,-5.4425,-9.7278
1637208300632,101.0634,-6.8076,-8.9096
1637208300646,101.0812,-5.9389,-9.6369
1637208300662,101.2593,-4.822,-8.5459
1637208300678,101.0456,-2.9074,-8.0005
1637208300692,100.7072,-2.0033,-8.5459
1637208300708,101.8291,-2.8188,-9.0732
1637208300724,100.351,-3.457,-8.9823
1637208300738,100.6182,-2.6415,-8.8005
1637208300754,100.9387,-3.5633,-8.9641
1637208300770,101.6689,-4.3966,-8.3459
1637208300784,101.4017,-4.8752,-8.7096
1637208300800,101.5798,-4.7866,-8.8187
1637208300816,102.0072,-5.3007,-8.8187
1637208300832,101.9538,-4.8043,-8.655
1637208300846,102.5059,-3.9711,-8.6369
1637208300862,101.4908,-4.0065,-8.1096
1637208300878,100.6538,-3.6342,-8.1096
1637208300892,101.4374,-3.3861,-8.8005
1637208300908,100.4757,-4.6979,-8.6005
1637208300924,100.4045,-4.822,-8.6369
1637208300938,100.0661,-5.3007,-9.546
1637208300954,100.6538,-4.9816,-8.3459
1637208300970,100.351,-4.1129,-7.7459
1637208300984,101.4552,-4.0065,-9.0005
1637208301000,101.1346,-3.9356,-9.5096
1637208301016,100.8675,-4.1484,-8.2914
1637208301030,101.6333,-5.4425,-8.2732
1637208301046,100.7072,-6.1516,-7.6004
1637208301062,99.5853,-4.822,-8.2914
1637208301076,101.0634,-3.9002,-9.1823
1637208301092,102.4168,-3.7229,-8.1096
1637208301108,102.0785,-4.1661,-8.9278
1637208301122,101.4017,-3.652,-7.8186
1637208301138,100.7072,-3.9534,-7.9641
1637208301154,99.9593,-3.9179,-9.346
1637208301168,100.6716,-4.9461,-8.8187
1637208301184,100.5469,-4.2015,-8.0005
1637208301200,101.0634,-3.457,-7.255
1637208301216,102.2031,-3.1733,-6.6367
1637208301230,102.7374,-2.1628,-5.5276
1637208301246,101.5798,-3.0847,-6.1458
1637208301262,101.6333,-4.9461,-7.4913
1637208301276,103.0401,-4.4675,-7.7277
1637208301292,102.4703,-3.6342,-8.1459
1637208301308,99.9593,-4.7866,-6.9822
1637208301322,100.4935,-3.7229,-6.7822
1637208301338,101.1346,-3.067,-7.6913
1637208301354,101.562,-3.262,-8.1459
1637208301368,101.7223,-3.4924,-8.9641
1637208301384,100.5469,-3.8293,-7.8368
1637208301400,101.7045,-4.6802,-7.9095
1637208301414,101.2771,-4.2015,-8.055
1637208301430,101.7223,-4.1838,-8.1823
1637208301446,102.2922,-4.0952,-8.6732
1637208301460,101.4908,-3.6874,-7.164
1637208301476,100.4401,-3.4392,-7.7277
1637208301492,101.5798,-3.0847,-7.6368
1637208301506,101.4374,-3.2088,-8.1096
1637208301522,100.9209,-3.2265,-8.0186
1637208301538,101.7045,-3.0138,-7.1459
1637208301552,101.01,-4.237,-6.7277
1637208301568,100.4401,-4.627,-6.8004
1637208301584,101.562,-4.3966,-7.0549
1637208301600,101.8291,-3.9888,-7.8914
1637208301614,100.4223,-4.0775,-8.3459
1637208301630,100.0839,-3.6342,-8.0368
1637208301646,101.3839,-3.0138,-6.9459
1637208301660,101.3661,-2.8188,-6.5095
1637208301676,101.0456,-3.9888,-7.0186
1637208301692,101.01,-4.8752,-8.0914
1637208301706,101.8648,-4.3434,-7.7277
1637208301722,101.2058,-4.0243,-7.8914
1637208301738,100.3867,-3.6874,-8.3277
1637208301752,100.6538,-4.1306,-7.1095
1637208301768,101.188,-3.3683,-7.455
1637208301784,101.9716,-3.5633,-7.655
1637208301798,102.5949,-4.0775,-7.6913
1637208301814,101.2949,-4.9461,-7.4368
1637208301830,100.5825,-4.7866,-7.8732
1637208301844,100.8141,-4.3966,-8.0186
1637208301860,99.6565,-4.6093,-7.6186
1637208301876,100.6538,-4.2725,-8.3823
1637208301890,101.3127,-3.6165,-8.4368
1637208301906,101.8826,-2.2515,-8.2914
1637208301922,101.7223,-3.8647,-7.2731
1637208301936,101.7045,-5.017,-7.4186
1637208301952,100.6894,-5.7439,-6.8549
1637208301968,101.5264,-5.7084,-7.4732
1637208301984,102.1853,-5.6375,-7.2004
1637208301998,101.9538,-4.5561,-6.0731
1637208302014,101.9716,-3.262,-7.2368
1637208302030,100.6538,-3.6697,-6.7458
1637208302044,100.1551,-4.237,-7.5277
1637208302060,100.3867,-3.847,-7.8004
1637208302076,100.8319,-4.0952,-8.1277
1637208302090,100.3867,-4.5207,-9.4733
1637208302106,101.847,-4.4675,-8.6187
1637208302122,100.2086,-5.017,-7.1459
1637208302136,100.725,-4.0597,-6.6549
1637208302152,100.8141,-4.9816,-6.6913
1637208302168,100.725,-5.4425,-6.7822
1637208302182,100.9031,-3.2088,-8.4187
1637208302198,100.8319,-4.042,-8.3277
1637208302214,99.7277,-4.3079,-7.6913
1637208302228,100.4579,-4.8752,-7.0368
1637208302244,100.9743,-4.0775,-8.6369
1637208302260,101.1524,-2.4642,-9.546
1637208302274,101.5264,-2.4287,-8.746
1637208302290,101.2237,-1.5069,-8.3277
1637208302306,100.7784,-3.2088,-8.3096
1637208302320,100.9387,-4.5207,-7.455
1637208302336,101.2415,-3.3151,-6.8186
1637208302352,101.7757,-2.9251,-7.9277
1637208302368,101.1168,-2.6947,-8.4187
1637208302382,101.099,-3.847,-8.655
1637208302398,101.562,-3.3506,-8.3823
1637208302414,100.9387,-3.067,-9.5824
1637208302428,101.4374,-3.3683,-9.0914
1637208302444,101.3661,-3.9888,-9.0369
1637208302460,100.8853,-3.3683,-9.0914
1637208302474,101.0278,-3.6697,-9.146
1637208302490,100.8319,-4.042,-7.9823
1637208302506,101.0456,-4.4143,-8.4187
1637208302520,100.9565,-4.042,-8.8732
1637208302536,100.2264,-3.6874,-8.4368
1637208302552,100.9565,-5.212,-10.3097
1637208302566,101.3305,-5.0348,-9.6551
1637208302582,100.2264,-3.9534,-7.8732
1637208302598,100.0127,-3.0315,-9.6369
1637208302612,100.2976,-3.4038,-9.8187
1637208302628,99.3538,-3.4924,-8.0732
1637208302644,99.4962,-2.9074,-10.4915
1637208302658,100.2798,-3.457,-12.3462
1637208302674,100.2798,-3.3151,-11.7098
1637208302690,100.7072,-4.1838,-9.8006
1637208302704,100.4401,-4.1661,-9.946
1637208302720,100.6004,-5.1589,-9.9824
1637208302736,100.7428,-3.4215,-9.3824
1637208302752,100.4401,-3.6874,-8.9096
1637208302766,101.3483,-4.8752,-10.0733
1637208302782,100.4935,-5.673,-11.2188
1637208302798,99.888,-5.017,-10.346
1637208302812,99.8168,-4.5561,-9.8733
1637208302828,100.2264,-5.3361,-10.346
1637208302844,99.9058,-5.0525,-10.3824
1637208302858,99.4784,-5.1766,-9.4369
1637208302874,99.514,-4.5384,-9.1823
1637208302890,100.1908,-3.7761,-10.5642
1637208302904,101.3127,-3.3151,-10.3097
1637208302920,100.7072,-3.7052,-9.0732
1637208302936,99.9414,-4.1306,-8.6369
1637208302950,100.725,-3.5102,-8.7278
1637208302966,101.4195,-5.017,-9.2733
1637208302982,102.0963,-5.0702,-8.6732
1637208302996,101.2058,-4.4497,-8.2368
1637208303012,99.7634,-3.5633,-8.1096
1637208303028,99.1401,-4.0243,-9.1823
1637208303042,99.9593,-4.0243,-10.0551
1637208303058,100.8141,-3.4747,-10.5097
1637208303074,100.1373,-4.7511,-11.2734
1637208303088,100.7963,-3.9534,-9.8187
1637208303104,100.7963,-3.4215,-8.6732
1637208303120,100.4401,-3.2265,-8.0368
1637208303136,101.847,-3.1024,-8.4732
1637208303150,102.7908,-3.4392,-8.0186
1637208303166,100.636,-4.237,-8.7641
1637208303182,99.9593,-4.8575,-9.6551
1637208303196,101.1168,-5.4425,-8.5823
1637208303212,101.0456,-5.5666,-8.3459
1637208303228,100.7606,-5.0525,-9.346
1637208303242,100.8319,-4.8043,-8.9096
1637208303258,99.3538,-4.6979,-9.2733
1637208303274,99.9414,-4.2547,-9.5642
1637208303288,100.725,-3.847,-9.346
1637208303304,100.5291,-3.5456,-8.8551
1637208303320,100.5469,-4.0775,-9.5642
1637208303334,100.0483,-5.017,-8.255
1637208303350,100.0839,-5.4602,-7.7641
1637208303366,101.1168,-4.5384,-9.2005
1637208303380,100.5291,-3.6697,-10.346
1637208303396,101.01,-3.6874,-10.9643
1637208303412,101.3661,-3.6697,-9.8006
1637208303426,101.2058,-4.3788,-8.455
1637208303442,100.7963,-4.4852,-8.1641
1637208303458,99.7455,-4.6093,-9.9824
1637208303472,100.3688,-4.3611,-8.4368
1637208303488,100.4045,-4.5384,-7.8732
1637208303504,100.1017,-4.2725,-8.3641
1637208303520,100.1551,-3.6874,-8.1459
1637208303534,100.7963,-3.9888,-8.6732
1637208303550,101.1702,-4.9461,-8.2914
1637208303566,99.9414,-5.0702,-9.546
1637208303580,100.5647,-4.5561,-10.3097
1637208303596,101.2237,-4.7688,-7.2186
1637208303612,100.7784,-3.9534,-8.2005
1637208303626,100.262,-2.9429,-9.4733
1637208303642,99.7277,-2.7301,-8.9096
1637208303658,99.5675,-3.5811,-8.5641
1637208303672,101.2058,-3.3683,-8.0186
1637208303688,102.1675,-2.7833,-8.8732
1637208303704,101.7935,-4.3434,-8.7823
1637208303718,102.4168,-5.7971,-8.2732
1637208303734,102.1675,-4.7866,-8.4368
1637208303750,101.0278,-4.0243,-8.055
1637208303764,100.636,-4.9816,-7.6732
1637208303780,99.7277,-5.1943,-8.0368
1637208303796,99.7455,-3.6697,-8.6369
1637208303810,100.9387,-3.3506,-8.5823
1637208303826,101.0456,-4.1661,-8.2914
1637208303842,101.0278,-4.0243,-8.7278
1637208303856,100.7784,-3.5811,-7.855
1637208303872,101.6511,-2.6592,-7.255
1637208303888,101.1524,-2.6592,-8.6732
1637208303904,101.9894,-3.2088,-9.3278
1637208303918,101.7045,-2.6947,-9.0914
1637208303934,101.1168,-2.9783,-7.8914
1637208303950,101.7401,-3.3329,-6.7458
1637208303964,102.0072,-3.1379,-7.9095
1637208303980,101.0456,-3.8115,-8.4732
1637208303996,101.0456,-4.8398,-8.7278
1637208304010,102.0785,-4.4675,-6.964
1637208304026,100.8319,-4.3966,-7.4186
1637208304042,101.5798,-3.8824,-8.3459
1637208304056,102.5771,-2.8542,-7.6732
1637208304072,102.025,-4.0952,-9.2551
1637208304088,100.5113,-5.7616,-7.7459
1637208304102,100.3154,-4.5561,-6.7822
1637208304118,101.0456,-4.237,-8.8187
1637208304134,101.3839,-4.237,-10.1279
1637208304148,100.8497,-2.801,-8.8551
1637208304164,100.8853,-3.847,-8.455
1637208304180,101.1702,-4.5916,-7.3277
1637208304194,101.7401,-4.6625,-7.2186
1637208304210,101.4552,-4.432,-6.7822
1637208304226,100.7963,-5.3539,-7.1822
1637208304240,100.262,-5.0879,-6.6186
1637208304256,101.188,-4.2902,-7.164
1637208304272,101.0278,-4.6625,-8.1641
1637208304288,100.262,-4.1484,-9.1278
1637208304302,100.4935,-2.8897,-8.0914
1637208304318,100.9031,-3.1201,-8.9096
1637208304334,100.9387,-3.5633,-9.4551
1637208304348,99.6031,-4.4143,-7.655
1637208304364,100.4401,-4.9284,-7.6004
1637208304380,101.188,-3.4392,-8.2368
1637208304394,100.5825,-4.0243,-7.3277
1637208304410,100.7784,-4.3788,-6.964
1637208304426,101.5086,-5.1766,-7.4732
1637208304440,102.9689,-5.3716,-7.3095
1637208304456,101.9894,-4.237,-7.5641
1637208304472,100.6894,-4.6802,-6.9095
1637208304486,100.3867,-4.6093,-6.0731
1637208304502,100.9565,-4.1661,-6.2913
1637208304518,100.9565,-3.5279,-6.0185
1637208304532,101.099,-3.7229,-5.8912
1637208304548,101.2237,-3.3861,-8.0914
1637208304564,101.2949,-4.0597,-8.8732
1637208304578,100.5825,-3.8115,-6.964
1637208304594,100.9743,-4.237,-8.1459
1637208304610,101.0634,-4.2547,-7.8732
1637208304624,100.7606,-2.996,-8.0005
1637208304640,102.3634,-3.067,-7.3095
1637208304656,101.9538,-4.3079,-7.5277
1637208304672,101.5086,-4.2725,-7.8004
1637208304686,101.7757,-4.1838,-7.9641
1637208304702,101.2237,-3.847,-7.1822
1637208304718,101.0812,-4.432,-5.8185
1637208304732,101.0456,-3.0847,-7.5823
1637208304748,100.173,-4.6802,-8.1459
1637208304764,100.7072,-5.1766,-6.0003
1637208304778,101.6867,-3.7229,-6.364
1637208304794,100.8853,-3.652,-6.4004
1637208304810,100.3688,-3.457,-6.2367
1637208304824,101.2771,-2.1983,-6.9459
1637208304840,101.5442,-3.0492,-8.2187
1637208304856,101.7045,-3.9711,-8.946
1637208304870,101.4552,-4.8575,-7.4913
1637208304886,102.0963,-4.3079,-8.0914
1637208304902,101.4195,-4.4852,-8.6005
1637208304916,101.7045,-4.6802,-7.7823
1637208304932,101.3483,-4.2015,-7.4186
1637208304948,99.4962,-4.1484,-6.0185
1637208304962,99.3716,-3.7938,-5.9822
1637208304978,100.3332,-4.042,-7.2731
1637208304994,100.351,-4.6625,-8.3096
1637208305008,100.0305,-4.2015,-7.8186
1637208305024,100.8497,-3.0492,-8.3459
1637208305040,101.936,-3.5988,-9.9097
1637208305056,101.5976,-4.8043,-8.6732
1637208305070,100.351,-4.8752,-6.7095
1637208305086,100.0661,-4.9284,-7.4004
1637208305102,100.4223,-4.3434,-7.5823
1637208305116,101.7579,-3.3683,-6.8004
1637208305132,101.3127,-2.4997,-7.2004
1637208305148,101.5976,-3.5811,-8.5278
1637208305162,101.6154,-3.9888,-6.8913
1637208305178,100.4935,-4.7334,-5.4549
1637208305194,100.3867,-4.8575,-7.4186
1637208305208,100.8319,-3.5279,-7.0913
1637208305224,102.1319,-2.801,-6.9095
1637208305240,101.3661,-3.3151,-6.3458
1637208305254,100.7963,-3.8115,-8.5641
1637208305270,100.6894,-3.4747,-8.055
1637208305286,100.725,-3.0315,-7.2368
1637208305300,101.0278,-3.2442,-8.6187
1637208305316,102.31,-4.0243,-7.5095
1637208305332,102.4524,-4.1306,-8.8369
1637208305346,101.099,-4.3611,-7.9641
1637208305362,100.173,-4.0952,-8.0914
1637208305378,101.2058,-4.8043,-6.5458
1637208305392,101.7757,-5.5312,-7.164
1637208305408,101.2415,-5.1057,-8.3823
1637208305424,101.1524,-3.7938,-9.7642
1637208305440,100.173,-3.4038,-8.8732
1637208305454,100.7784,-3.7406,-9.1278
1637208305470,101.473,-4.3256,-7.0004
1637208305486,100.9921,-4.6447,-4.6003
1637208305500,101.7401,-2.5351,-6.3822
1637208305516,102.3812,-3.8115,-7.9641
1637208305532,101.4195,-5.3361,-9.2187
1637208305546,100.9565,-5.0348,-7.6186
1637208305562,101.9004,-4.237,-7.5823
1637208305578,100.9387,-4.5207,-7.0186
1637208305592,100.8853,-4.4675,-5.9276
1637208305608,100.7428,-2.7833,-6.0003
1637208305624,101.5264,-3.7406,-6.9822
1637208305638,101.7579,-2.8365,-7.7823
1637208305654,101.9894,-3.5988,-8.3459
1637208305670,101.8826,-4.1661,-7.0731
1637208305684,102.0785,-3.8293,-6.4004
1637208305700,101.9894,-4.042,-7.7095
1637208305716,101.6867,-3.9179,-8.3641
1637208305730,100.6894,-4.1306,-5.8003
1637208305746,101.1346,-3.5456,-5.4003
1637208305762,101.2949,-3.262,-6.4367
1637208305776,99.9058,-2.9783,-7.8186
1637208305792,99.4784,-2.4465,-8.1641
1637208305808,100.4757,-2.7301,-8.4914
1637208305824,100.9921,-3.2974,-7.0368
1637208305838,101.4195,-2.606,-6.3095
1637208305854,100.4935,-3.3861,-7.164
1637208305870,101.188,-3.4215,-7.8186
1637208305884,101.1524,-2.7656,-7.8368
1637208305900,100.9387,-3.8293,-7.2368
1637208305916,100.7606,-4.6093,-7.8186
1637208305930,101.4908,-4.9107,-7.6732
1637208305946,101.562,-3.6874,-7.2913
1637208305962,101.7935,-3.1733,-8.2914
1637208305976,100.7963,-2.9783,-8.6187
1637208305992,100.4757,-2.3046,-8.6732
1637208306008,100.4045,-3.067,-8.1459
1637208306022,101.0812,-3.8293,-7.0731
1637208306038,101.3839,-3.0847,-6.7095
1637208306054,101.4374,-3.9002,-7.0004
1637208306068,100.4757,-3.6342,-7.8732
1637208306084,101.473,-4.4852,-7.9277
1637208306100,101.1168,-4.3966,-6.7095
1637208306114,100.9209,-3.5279,-6.4185
1637208306130,101.0456,-4.7511,-6.9095
1637208306146,99.9949,-5.4071,-6.3095
1637208306160,100.0661,-4.4497,-6.764
1637208306176,101.5442,-2.9429,-9.2187
1637208306192,101.1524,-2.8365,-9.8915
1637208306208,100.8497,-3.3329,-8.5641
1637208306222,100.8853,-3.7583,-8.2187
1637208306238,100.9743,-5.673,-7.6186
1637208306254,101.936,-5.8148,-7.6186
1637208306268,102.5593,-4.9816,-7.7641
1637208306284,102.862,-4.7511,-7.1277
